submission_id,QUD,RT,age,choice_options_1,choice_options_2,choice_options_3,column_number,comments,condition,correct,education,endTime,expected,experiment_id,gender,languages,question,response,row_number,sentence_chunk_1,sentence_chunk_2,sentence_chunk_3,sentence_chunk_4,sitation_number,situation,startDate,startTime,stimulus,timeSpent,trial_name,trial_number
11733,,35186,24,all|most|some|none,all|most|some|none,right|wrong,5,,high,placeholder,Graduated College,1580416450279,placeholder,83,female,English,Describe these results of <strong>Green Valley</strong> so as to make it appear as if there is a <strong>high</strong> success rate without lying.,all|some|right,9|9|3|3|3,In this exam,of the students got,of the questions,.,12,"%{""instances"" => [%{""n_col"" => 12, ""rows"" => [9, 9, 3, 3, 3]}], ""number"" => 12, ""sequence"" => [""BCCCC"", ""BBCCC""], ""truth_table"" => []}",Thu Jan 30 2020 12:29:35 GMT-0800 (PST),1580416175484,1|1|1|1|1|1|1|1|1|0|0|0|1|1|1|1|1|1|1|1|1|0|0|0|1|1|1|0|0|0|0|0|0|0|0|0|1|1|1|0|0|0|0|0|0|0|0|0|1|1|1|0|0|0|0|0|0|0|0|0,4.57991666666667,training_trials,1
11733,,14173,24,all|most|some|none,all|most|some|none,right|wrong,5,,low,placeholder,Graduated College,1580416450279,placeholder,83,female,English,Describe these results of <strong>Riverside</strong> so as to make it appear as if there is a <strong>low</strong> success rate without lying.,most|most|wrong,9|9|3|3|3,In this exam,of the students got,of the questions,.,12,"%{""instances"" => [%{""n_col"" => 12, ""rows"" => [9, 9, 3, 3, 3]}], ""number"" => 12, ""sequence"" => [""BCCCC"", ""BBCCC""], ""truth_table"" => []}",Thu Jan 30 2020 12:29:35 GMT-0800 (PST),1580416175484,1|1|1|1|1|1|1|1|1|0|0|0|1|1|1|1|1|1|1|1|1|0|0|0|1|1|1|0|0|0|0|0|0|0|0|0|1|1|1|0|0|0|0|0|0|0|0|0|1|1|1|0|0|0|0|0|0|0|0|0,4.57991666666667,training_trials,2
11733,,10990,24,all|most|some|none,all|most|some|none,right|wrong,5,,low,placeholder,Graduated College,1580416450279,placeholder,83,female,English,Describe these results of <strong>Riverside</strong> so as to make it appear as if there is a <strong>low</strong> success rate without lying.,most|all|wrong,12|12|0|0|0,In this exam,of the students got,of the questions,.,4,"%{""instances"" => [%{""n_col"" => 12, ""rows"" => [12, 12, 0, 0, 0]}], ""number"" => 4, ""sequence"" => [""ADDDD"", ""AADDD"", ""ABDDD"", ""ACDDD""], ""truth_table"" => []}",Thu Jan 30 2020 12:29:35 GMT-0800 (PST),1580416175484,1|1|1|1|1|1|1|1|1|1|1|1|1|1|1|1|1|1|1|1|1|1|1|1|0|0|0|0|0|0|0|0|0|0|0|0|0|0|0|0|0|0|0|0|0|0|0|0|0|0|0|0|0|0|0|0|0|0|0|0,4.57991666666667,training_trials,3
11733,,14006,24,all|most|some|none,all|most|some|none,right|wrong,5,,high,placeholder,Graduated College,1580416450279,placeholder,83,female,English,Describe these results of <strong>Green Valley</strong> so as to make it appear as if there is a <strong>high</strong> success rate without lying.,some|all|right,12|12|0|0|0,In this exam,of the students got,of the questions,.,4,"%{""instances"" => [%{""n_col"" => 12, ""rows"" => [12, 12, 0, 0, 0]}], ""number"" => 4, ""sequence"" => [""ADDDD"", ""AADDD"", ""ABDDD"", ""ACDDD""], ""truth_table"" => []}",Thu Jan 30 2020 12:29:35 GMT-0800 (PST),1580416175484,1|1|1|1|1|1|1|1|1|1|1|1|1|1|1|1|1|1|1|1|1|1|1|1|0|0|0|0|0|0|0|0|0|0|0|0|0|0|0|0|0|0|0|0|0|0|0|0|0|0|0|0|0|0|0|0|0|0|0|0,4.57991666666667,training_trials,4
11733,,5613,24,all|most|some|none,all|most|some|none,right|wrong,5,,high,placeholder,Graduated College,1580416450279,placeholder,83,female,English,Describe these results of <strong>Green Valley</strong> so as to make it appear as if there is a <strong>high</strong> success rate without lying.,all|all|right,12|12|12|12|12,In this exam,of the students got,of the questions,.,20,"%{""instances"" => [%{""n_col"" => 12, ""rows"" => '\f\f\f\f\f'}], ""number"" => 20, ""sequence"" => [""AAAAA""], ""truth_table"" => []}",Thu Jan 30 2020 12:29:35 GMT-0800 (PST),1580416175484,1|1|1|1|1|1|1|1|1|1|1|1|1|1|1|1|1|1|1|1|1|1|1|1|1|1|1|1|1|1|1|1|1|1|1|1|1|1|1|1|1|1|1|1|1|1|1|1|1|1|1|1|1|1|1|1|1|1|1|1,4.57991666666667,main_trials,1
11733,,6108,24,all|most|some|none,all|most|some|none,right|wrong,5,,low,placeholder,Graduated College,1580416450279,placeholder,83,female,English,Describe these results of <strong>Riverside</strong> so as to make it appear as if there is a <strong>low</strong> success rate without lying.,most|all|wrong,9|9|0|0|0,In this exam,of the students got,of the questions,.,3,"%{""instances"" => [%{""n_col"" => 12, ""rows"" => [9, 9, 0, 0, 0]}], ""number"" => 3, ""sequence"" => [""BDDDD"", ""BBDDD"", ""BCDDD""], ""truth_table"" => []}",Thu Jan 30 2020 12:29:35 GMT-0800 (PST),1580416175484,1|1|1|1|1|1|1|1|1|0|0|0|1|1|1|1|1|1|1|1|1|0|0|0|0|0|0|0|0|0|0|0|0|0|0|0|0|0|0|0|0|0|0|0|0|0|0|0|0|0|0|0|0|0|0|0|0|0|0|0,4.57991666666667,main_trials,2
11733,,9922,24,all|most|some|none,all|most|some|none,right|wrong,5,,high,placeholder,Graduated College,1580416450279,placeholder,83,female,English,Describe these results of <strong>Green Valley</strong> so as to make it appear as if there is a <strong>high</strong> success rate without lying.,all|some|right,9|9|3|3|3,In this exam,of the students got,of the questions,.,12,"%{""instances"" => [%{""n_col"" => 12, ""rows"" => [9, 9, 3, 3, 3]}], ""number"" => 12, ""sequence"" => [""BCCCC"", ""BBCCC""], ""truth_table"" => []}",Thu Jan 30 2020 12:29:35 GMT-0800 (PST),1580416175484,1|1|1|1|1|1|1|1|1|0|0|0|1|1|1|1|1|1|1|1|1|0|0|0|1|1|1|0|0|0|0|0|0|0|0|0|1|1|1|0|0|0|0|0|0|0|0|0|1|1|1|0|0|0|0|0|0|0|0|0,4.57991666666667,main_trials,3
11733,,5556,24,all|most|some|none,all|most|some|none,right|wrong,5,,low,placeholder,Graduated College,1580416450279,placeholder,83,female,English,Describe these results of <strong>Riverside</strong> so as to make it appear as if there is a <strong>low</strong> success rate without lying.,some|all|wrong,12|12|9|0|0,In this exam,of the students got,of the questions,.,8,"%{""instances"" => [%{""n_col"" => 12, ""rows"" => [12, 12, 9, 0, 0]}], ""number"" => 8, ""sequence"" => [""ABBBD"", ""ABBDD"", ""AABDD"", ""ABBBD"", ""ABBCD"", ""AABCD""], ""truth_table"" => []}",Thu Jan 30 2020 12:29:35 GMT-0800 (PST),1580416175484,1|1|1|1|1|1|1|1|1|1|1|1|1|1|1|1|1|1|1|1|1|1|1|1|1|1|1|1|1|1|1|1|1|0|0|0|0|0|0|0|0|0|0|0|0|0|0|0|0|0|0|0|0|0|0|0|0|0|0|0,4.57991666666667,main_trials,4
11733,,10338,24,all|most|some|none,all|most|some|none,right|wrong,5,,low,placeholder,Graduated College,1580416450279,placeholder,83,female,English,Describe these results of <strong>Riverside</strong> so as to make it appear as if there is a <strong>low</strong> success rate without lying.,some|some|wrong,12|12|12|9|9,In this exam,of the students got,of the questions,.,19,"%{""instances"" => [%{""n_col"" => 12, ""rows"" => '\f\f\f\t\t'}], ""number"" => 19, ""sequence"" => [""AAABB"", ""AAAAB""], ""truth_table"" => []}",Thu Jan 30 2020 12:29:35 GMT-0800 (PST),1580416175484,1|1|1|1|1|1|1|1|1|1|1|1|1|1|1|1|1|1|1|1|1|1|1|1|1|1|1|1|1|1|1|1|1|1|1|1|1|1|1|1|1|1|1|1|1|0|0|0|1|1|1|1|1|1|1|1|1|0|0|0,4.57991666666667,main_trials,5
11733,,4544,24,all|most|some|none,all|most|some|none,right|wrong,5,,high,placeholder,Graduated College,1580416450279,placeholder,83,female,English,Describe these results of <strong>Green Valley</strong> so as to make it appear as if there is a <strong>high</strong> success rate without lying.,most|all|right,12|12|12|0|0,In this exam,of the students got,of the questions,.,9,"%{""instances"" => [%{""n_col"" => 12, ""rows"" => [12, 12, 12, 0, 0]}], ""number"" => 9, ""sequence"" => [""AAADD"", ""AAAAD"", ""AAABD"", ""AAACD""], ""truth_table"" => []}",Thu Jan 30 2020 12:29:35 GMT-0800 (PST),1580416175484,1|1|1|1|1|1|1|1|1|1|1|1|1|1|1|1|1|1|1|1|1|1|1|1|1|1|1|1|1|1|1|1|1|1|1|1|0|0|0|0|0|0|0|0|0|0|0|0|0|0|0|0|0|0|0|0|0|0|0|0,4.57991666666667,main_trials,6
11733,,8504,24,all|most|some|none,all|most|some|none,right|wrong,5,,high,placeholder,Graduated College,1580416450279,placeholder,83,female,English,Describe these results of <strong>Green Valley</strong> so as to make it appear as if there is a <strong>high</strong> success rate without lying.,most|most|right,9|9|9|3|3,In this exam,of the students got,of the questions,.,14,"%{""instances"" => [%{""n_col"" => 12, ""rows"" => [9, 9, 9, 3, 3]}], ""number"" => 14, ""sequence"" => [""BBBCC"", ""BBBBC""], ""truth_table"" => []}",Thu Jan 30 2020 12:29:35 GMT-0800 (PST),1580416175484,1|1|1|1|1|1|1|1|1|0|0|0|1|1|1|1|1|1|1|1|1|0|0|0|1|1|1|1|1|1|1|1|1|0|0|0|1|1|1|0|0|0|0|0|0|0|0|0|1|1|1|0|0|0|0|0|0|0|0|0,4.57991666666667,main_trials,7
11733,,5939,24,all|most|some|none,all|most|some|none,right|wrong,5,,low,placeholder,Graduated College,1580416450279,placeholder,83,female,English,Describe these results of <strong>Riverside</strong> so as to make it appear as if there is a <strong>low</strong> success rate without lying.,all|some|wrong,9|9|9|9|9,In this exam,of the students got,of the questions,.,17,"%{""instances"" => [%{""n_col"" => 12, ""rows"" => '\t\t\t\t\t'}], ""number"" => 17, ""sequence"" => [""BBBBB""], ""truth_table"" => []}",Thu Jan 30 2020 12:29:35 GMT-0800 (PST),1580416175484,1|1|1|1|1|1|1|1|1|0|0|0|1|1|1|1|1|1|1|1|1|0|0|0|1|1|1|1|1|1|1|1|1|0|0|0|1|1|1|1|1|1|1|1|1|0|0|0|1|1|1|1|1|1|1|1|1|0|0|0,4.57991666666667,main_trials,8
11733,,13589,24,all|most|some|none,all|most|some|none,right|wrong,5,,low,placeholder,Graduated College,1580416450279,placeholder,83,female,English,Describe these results of <strong>Riverside</strong> so as to make it appear as if there is a <strong>low</strong> success rate without lying.,all|most|wrong,3|3|3|0|0,In this exam,of the students got,of the questions,.,5,"%{""instances"" => [%{""n_col"" => 12, ""rows"" => [3, 3, 3, 0, 0]}], ""number"" => 5, ""sequence"" => [""CCCDD"", ""CCCCD""], ""truth_table"" => []}",Thu Jan 30 2020 12:29:35 GMT-0800 (PST),1580416175484,1|1|1|0|0|0|0|0|0|0|0|0|1|1|1|0|0|0|0|0|0|0|0|0|1|1|1|0|0|0|0|0|0|0|0|0|0|0|0|0|0|0|0|0|0|0|0|0|0|0|0|0|0|0|0|0|0|0|0|0,4.57991666666667,main_trials,9
11733,,5647,24,all|most|some|none,all|most|some|none,right|wrong,5,,high,placeholder,Graduated College,1580416450279,placeholder,83,female,English,Describe these results of <strong>Green Valley</strong> so as to make it appear as if there is a <strong>high</strong> success rate without lying.,some|all|right,12|12|3|0|0,In this exam,of the students got,of the questions,.,1,"%{""instances"" => [%{""n_col"" => 12, ""rows"" => [12, 12, 3, 0, 0]}], ""number"" => 1, ""sequence"" => [""ACCCD"", ""ACCDD"", ""AACDD"", ""AACCD"", ""ABCDD"", ""ABCCD""], ""truth_table"" => []}",Thu Jan 30 2020 12:29:35 GMT-0800 (PST),1580416175484,1|1|1|1|1|1|1|1|1|1|1|1|1|1|1|1|1|1|1|1|1|1|1|1|1|1|1|0|0|0|0|0|0|0|0|0|0|0|0|0|0|0|0|0|0|0|0|0|0|0|0|0|0|0|0|0|0|0|0|0,4.57991666666667,main_trials,10
11733,,6850,24,all|most|some|none,all|most|some|none,right|wrong,5,,low,placeholder,Graduated College,1580416450279,placeholder,83,female,English,Describe these results of <strong>Riverside</strong> so as to make it appear as if there is a <strong>low</strong> success rate without lying.,some|most|wrong,12|12|12|3|3,In this exam,of the students got,of the questions,.,16,"%{""instances"" => [%{""n_col"" => 12, ""rows"" => [12, 12, 12, 3, 3]}], ""number"" => 16, ""sequence"" => [""AAACC"", ""AAAAC"", ""AAABC""], ""truth_table"" => []}",Thu Jan 30 2020 12:29:35 GMT-0800 (PST),1580416175484,1|1|1|1|1|1|1|1|1|1|1|1|1|1|1|1|1|1|1|1|1|1|1|1|1|1|1|1|1|1|1|1|1|1|1|1|1|1|1|0|0|0|0|0|0|0|0|0|1|1|1|0|0|0|0|0|0|0|0|0,4.57991666666667,main_trials,11
11733,,4814,24,all|most|some|none,all|most|some|none,right|wrong,5,,low,placeholder,Graduated College,1580416450279,placeholder,83,female,English,Describe these results of <strong>Riverside</strong> so as to make it appear as if there is a <strong>low</strong> success rate without lying.,most|most|wrong,12|12|3|3|3,In this exam,of the students got,of the questions,.,13,"%{""instances"" => [%{""n_col"" => 12, ""rows"" => [12, 12, 3, 3, 3]}], ""number"" => 13, ""sequence"" => [""ACCCC"", ""AACCC"", ""ABCCC""], ""truth_table"" => []}",Thu Jan 30 2020 12:29:35 GMT-0800 (PST),1580416175484,1|1|1|1|1|1|1|1|1|1|1|1|1|1|1|1|1|1|1|1|1|1|1|1|1|1|1|0|0|0|0|0|0|0|0|0|1|1|1|0|0|0|0|0|0|0|0|0|1|1|1|0|0|0|0|0|0|0|0|0,4.57991666666667,main_trials,12
11733,,3486,24,all|most|some|none,all|most|some|none,right|wrong,5,,low,placeholder,Graduated College,1580416450279,placeholder,83,female,English,Describe these results of <strong>Riverside</strong> so as to make it appear as if there is a <strong>low</strong> success rate without lying.,all|all|wrong,0|0|0|0|0,In this exam,of the students got,of the questions,.,10,"%{""instances"" => [%{""n_col"" => 12, ""rows"" => [0, 0, 0, 0, 0]}], ""number"" => 10, ""sequence"" => [""DDDDD""], ""truth_table"" => []}",Thu Jan 30 2020 12:29:35 GMT-0800 (PST),1580416175484,0|0|0|0|0|0|0|0|0|0|0|0|0|0|0|0|0|0|0|0|0|0|0|0|0|0|0|0|0|0|0|0|0|0|0|0|0|0|0|0|0|0|0|0|0|0|0|0|0|0|0|0|0|0|0|0|0|0|0|0,4.57991666666667,main_trials,13
11733,,5692,24,all|most|some|none,all|most|some|none,right|wrong,5,,high,placeholder,Graduated College,1580416450279,placeholder,83,female,English,Describe these results of <strong>Green Valley</strong> so as to make it appear as if there is a <strong>high</strong> success rate without lying.,all|some|right,3|3|3|3|3,In this exam,of the students got,of the questions,.,11,"%{""instances"" => [%{""n_col"" => 12, ""rows"" => [3, 3, 3, 3, 3]}], ""number"" => 11, ""sequence"" => [""CCCCC""], ""truth_table"" => []}",Thu Jan 30 2020 12:29:35 GMT-0800 (PST),1580416175484,1|1|1|0|0|0|0|0|0|0|0|0|1|1|1|0|0|0|0|0|0|0|0|0|1|1|1|0|0|0|0|0|0|0|0|0|1|1|1|0|0|0|0|0|0|0|0|0|1|1|1|0|0|0|0|0|0|0|0|0,4.57991666666667,main_trials,14
11733,,6040,24,all|most|some|none,all|most|some|none,right|wrong,5,,high,placeholder,Graduated College,1580416450279,placeholder,83,female,English,Describe these results of <strong>Green Valley</strong> so as to make it appear as if there is a <strong>high</strong> success rate without lying.,most|most|right,12|12|9|3|3,In this exam,of the students got,of the questions,.,15,"%{""instances"" => [%{""n_col"" => 12, ""rows"" => [12, 12, 9, 3, 3]}], ""number"" => 15, ""sequence"" => [""ABBBC"", ""ABBCC"", ""AABCC"", ""AABBC""], ""truth_table"" => []}",Thu Jan 30 2020 12:29:35 GMT-0800 (PST),1580416175484,1|1|1|1|1|1|1|1|1|1|1|1|1|1|1|1|1|1|1|1|1|1|1|1|1|1|1|1|1|1|1|1|1|0|0|0|1|1|1|0|0|0|0|0|0|0|0|0|1|1|1|0|0|0|0|0|0|0|0|0,4.57991666666667,main_trials,15
11733,,6018,24,all|most|some|none,all|most|some|none,right|wrong,5,,high,placeholder,Graduated College,1580416450279,placeholder,83,female,English,Describe these results of <strong>Green Valley</strong> so as to make it appear as if there is a <strong>high</strong> success rate without lying.,all|most|right,12|12|9|9|9,In this exam,of the students got,of the questions,.,18,"%{""instances"" => [%{""n_col"" => 12, ""rows"" => '\f\f\t\t\t'}], ""number"" => 18, ""sequence"" => [""ABBBB"", ""AABBB""], ""truth_table"" => []}",Thu Jan 30 2020 12:29:35 GMT-0800 (PST),1580416175484,1|1|1|1|1|1|1|1|1|1|1|1|1|1|1|1|1|1|1|1|1|1|1|1|1|1|1|1|1|1|1|1|1|0|0|0|1|1|1|1|1|1|1|1|1|0|0|0|1|1|1|1|1|1|1|1|1|0|0|0,4.57991666666667,main_trials,16
11733,,6884,24,all|most|some|none,all|most|some|none,right|wrong,5,,low,placeholder,Graduated College,1580416450279,placeholder,83,female,English,Describe these results of <strong>Riverside</strong> so as to make it appear as if there is a <strong>low</strong> success rate without lying.,all|most|wrong,3|3|0|0|0,In this exam,of the students got,of the questions,.,2,"%{""instances"" => [%{""n_col"" => 12, ""rows"" => [3, 3, 0, 0, 0]}], ""number"" => 2, ""sequence"" => [""CDDDD"", ""CCDDD""], ""truth_table"" => []}",Thu Jan 30 2020 12:29:35 GMT-0800 (PST),1580416175484,1|1|1|0|0|0|0|0|0|0|0|0|1|1|1|0|0|0|0|0|0|0|0|0|0|0|0|0|0|0|0|0|0|0|0|0|0|0|0|0|0|0|0|0|0|0|0|0|0|0|0|0|0|0|0|0|0|0|0|0,4.57991666666667,main_trials,17
11733,,4578,24,all|most|some|none,all|most|some|none,right|wrong,5,,high,placeholder,Graduated College,1580416450279,placeholder,83,female,English,Describe these results of <strong>Green Valley</strong> so as to make it appear as if there is a <strong>high</strong> success rate without lying.,some|all|right,12|12|0|0|0,In this exam,of the students got,of the questions,.,4,"%{""instances"" => [%{""n_col"" => 12, ""rows"" => [12, 12, 0, 0, 0]}], ""number"" => 4, ""sequence"" => [""ADDDD"", ""AADDD"", ""ABDDD"", ""ACDDD""], ""truth_table"" => []}",Thu Jan 30 2020 12:29:35 GMT-0800 (PST),1580416175484,1|1|1|1|1|1|1|1|1|1|1|1|1|1|1|1|1|1|1|1|1|1|1|1|0|0|0|0|0|0|0|0|0|0|0|0|0|0|0|0|0|0|0|0|0|0|0|0|0|0|0|0|0|0|0|0|0|0|0|0,4.57991666666667,main_trials,18
11733,,4780,24,all|most|some|none,all|most|some|none,right|wrong,5,,low,placeholder,Graduated College,1580416450279,placeholder,83,female,English,Describe these results of <strong>Riverside</strong> so as to make it appear as if there is a <strong>low</strong> success rate without lying.,most|most|right,9|9|9|0|0,In this exam,of the students got,of the questions,.,7,"%{""instances"" => [%{""n_col"" => 12, ""rows"" => [9, 9, 9, 0, 0]}], ""number"" => 7, ""sequence"" => [""BBBDD"", ""BBBBD"", ""BBBCD""], ""truth_table"" => []}",Thu Jan 30 2020 12:29:35 GMT-0800 (PST),1580416175484,1|1|1|1|1|1|1|1|1|0|0|0|1|1|1|1|1|1|1|1|1|0|0|0|1|1|1|1|1|1|1|1|1|0|0|0|0|0|0|0|0|0|0|0|0|0|0|0|0|0|0|0|0|0|0|0|0|0|0|0,4.57991666666667,main_trials,19
11733,,12374,24,all|most|some|none,all|most|some|none,right|wrong,5,,high,placeholder,Graduated College,1580416450279,placeholder,83,female,English,Describe these results of <strong>Green Valley</strong> so as to make it appear as if there is a <strong>high</strong> success rate without lying.,most|some|right,9|9|3|0|0,In this exam,of the students got,of the questions,.,6,"%{""instances"" => [%{""n_col"" => 12, ""rows"" => [9, 9, 3, 0, 0]}], ""number"" => 6, ""sequence"" => [""BCCCD"", ""BCCDD"", ""BBCDD"", ""BBCCD""], ""truth_table"" => []}",Thu Jan 30 2020 12:29:35 GMT-0800 (PST),1580416175484,1|1|1|1|1|1|1|1|1|0|0|0|1|1|1|1|1|1|1|1|1|0|0|0|1|1|1|0|0|0|0|0|0|0|0|0|0|0|0|0|0|0|0|0|0|0|0|0|0|0|0|0|0|0|0|0|0|0|0|0,4.57991666666667,main_trials,20
11759,,78910,31,all|most|some|none,all|most|some|none,right|wrong,5,This survey was very interesting. I like the experiment being done.,high,placeholder,Graduated High School,1580417368691,placeholder,83,male,English,Describe these results of <strong>Green Valley</strong> so as to make it appear as if there is a <strong>high</strong> success rate without lying.,most|none|right,12|12|0|0|0,In this exam,of the students got,of the questions,.,4,"%{""instances"" => [%{""n_col"" => 12, ""rows"" => [12, 12, 0, 0, 0]}], ""number"" => 4, ""sequence"" => [""ADDDD"", ""AADDD"", ""ABDDD"", ""ACDDD""], ""truth_table"" => []}",Thu Jan 30 2020 12:32:29 GMT-0800 (Pacific Standard Time),1580416349519,1|1|1|1|1|1|1|1|1|1|1|1|1|1|1|1|1|1|1|1|1|1|1|1|0|0|0|0|0|0|0|0|0|0|0|0|0|0|0|0|0|0|0|0|0|0|0|0|0|0|0|0|0|0|0|0|0|0|0|0,16.9862,training_trials,1
11759,,20126,31,all|most|some|none,all|most|some|none,right|wrong,5,This survey was very interesting. I like the experiment being done.,low,placeholder,Graduated High School,1580417368691,placeholder,83,male,English,Describe these results of <strong>Riverside</strong> so as to make it appear as if there is a <strong>low</strong> success rate without lying.,most|most|wrong,12|12|0|0|0,In this exam,of the students got,of the questions,.,4,"%{""instances"" => [%{""n_col"" => 12, ""rows"" => [12, 12, 0, 0, 0]}], ""number"" => 4, ""sequence"" => [""ADDDD"", ""AADDD"", ""ABDDD"", ""ACDDD""], ""truth_table"" => []}",Thu Jan 30 2020 12:32:29 GMT-0800 (Pacific Standard Time),1580416349519,1|1|1|1|1|1|1|1|1|1|1|1|1|1|1|1|1|1|1|1|1|1|1|1|0|0|0|0|0|0|0|0|0|0|0|0|0|0|0|0|0|0|0|0|0|0|0|0|0|0|0|0|0|0|0|0|0|0|0|0,16.9862,training_trials,2
11759,,13608,31,all|most|some|none,all|most|some|none,right|wrong,5,This survey was very interesting. I like the experiment being done.,low,placeholder,Graduated High School,1580417368691,placeholder,83,male,English,Describe these results of <strong>Riverside</strong> so as to make it appear as if there is a <strong>low</strong> success rate without lying.,some|most|wrong,9|9|3|3|3,In this exam,of the students got,of the questions,.,12,"%{""instances"" => [%{""n_col"" => 12, ""rows"" => [9, 9, 3, 3, 3]}], ""number"" => 12, ""sequence"" => [""BCCCC"", ""BBCCC""], ""truth_table"" => []}",Thu Jan 30 2020 12:32:29 GMT-0800 (Pacific Standard Time),1580416349519,1|1|1|1|1|1|1|1|1|0|0|0|1|1|1|1|1|1|1|1|1|0|0|0|1|1|1|0|0|0|0|0|0|0|0|0|1|1|1|0|0|0|0|0|0|0|0|0|1|1|1|0|0|0|0|0|0|0|0|0,16.9862,training_trials,3
11759,,14780,31,all|most|some|none,all|most|some|none,right|wrong,5,This survey was very interesting. I like the experiment being done.,high,placeholder,Graduated High School,1580417368691,placeholder,83,male,English,Describe these results of <strong>Green Valley</strong> so as to make it appear as if there is a <strong>high</strong> success rate without lying.,some|some|right,9|9|3|3|3,In this exam,of the students got,of the questions,.,12,"%{""instances"" => [%{""n_col"" => 12, ""rows"" => [9, 9, 3, 3, 3]}], ""number"" => 12, ""sequence"" => [""BCCCC"", ""BBCCC""], ""truth_table"" => []}",Thu Jan 30 2020 12:32:29 GMT-0800 (Pacific Standard Time),1580416349519,1|1|1|1|1|1|1|1|1|0|0|0|1|1|1|1|1|1|1|1|1|0|0|0|1|1|1|0|0|0|0|0|0|0|0|0|1|1|1|0|0|0|0|0|0|0|0|0|1|1|1|0|0|0|0|0|0|0|0|0,16.9862,training_trials,4
11759,,70626,31,all|most|some|none,all|most|some|none,right|wrong,5,This survey was very interesting. I like the experiment being done.,high,placeholder,Graduated High School,1580417368691,placeholder,83,male,English,Describe these results of <strong>Green Valley</strong> so as to make it appear as if there is a <strong>high</strong> success rate without lying.,most|all|right,12|12|12|3|3,In this exam,of the students got,of the questions,.,16,"%{""instances"" => [%{""n_col"" => 12, ""rows"" => [12, 12, 12, 3, 3]}], ""number"" => 16, ""sequence"" => [""AAACC"", ""AAAAC"", ""AAABC""], ""truth_table"" => []}",Thu Jan 30 2020 12:32:29 GMT-0800 (Pacific Standard Time),1580416349519,1|1|1|1|1|1|1|1|1|1|1|1|1|1|1|1|1|1|1|1|1|1|1|1|1|1|1|1|1|1|1|1|1|1|1|1|1|1|1|0|0|0|0|0|0|0|0|0|1|1|1|0|0|0|0|0|0|0|0|0,16.9862,main_trials,1
11759,,15383,31,all|most|some|none,all|most|some|none,right|wrong,5,This survey was very interesting. I like the experiment being done.,low,placeholder,Graduated High School,1580417368691,placeholder,83,male,English,Describe these results of <strong>Riverside</strong> so as to make it appear as if there is a <strong>low</strong> success rate without lying.,some|some|wrong,12|12|12|9|9,In this exam,of the students got,of the questions,.,19,"%{""instances"" => [%{""n_col"" => 12, ""rows"" => '\f\f\f\t\t'}], ""number"" => 19, ""sequence"" => [""AAABB"", ""AAAAB""], ""truth_table"" => []}",Thu Jan 30 2020 12:32:29 GMT-0800 (Pacific Standard Time),1580416349519,1|1|1|1|1|1|1|1|1|1|1|1|1|1|1|1|1|1|1|1|1|1|1|1|1|1|1|1|1|1|1|1|1|1|1|1|1|1|1|1|1|1|1|1|1|0|0|0|1|1|1|1|1|1|1|1|1|0|0|0,16.9862,main_trials,2
11759,,18298,31,all|most|some|none,all|most|some|none,right|wrong,5,This survey was very interesting. I like the experiment being done.,high,placeholder,Graduated High School,1580417368691,placeholder,83,male,English,Describe these results of <strong>Green Valley</strong> so as to make it appear as if there is a <strong>high</strong> success rate without lying.,most|most|right,9|9|3|3|3,In this exam,of the students got,of the questions,.,12,"%{""instances"" => [%{""n_col"" => 12, ""rows"" => [9, 9, 3, 3, 3]}], ""number"" => 12, ""sequence"" => [""BCCCC"", ""BBCCC""], ""truth_table"" => []}",Thu Jan 30 2020 12:32:29 GMT-0800 (Pacific Standard Time),1580416349519,1|1|1|1|1|1|1|1|1|0|0|0|1|1|1|1|1|1|1|1|1|0|0|0|1|1|1|0|0|0|0|0|0|0|0|0|1|1|1|0|0|0|0|0|0|0|0|0|1|1|1|0|0|0|0|0|0|0|0|0,16.9862,main_trials,3
11759,,98899,31,all|most|some|none,all|most|some|none,right|wrong,5,This survey was very interesting. I like the experiment being done.,low,placeholder,Graduated High School,1580417368691,placeholder,83,male,English,Describe these results of <strong>Riverside</strong> so as to make it appear as if there is a <strong>low</strong> success rate without lying.,some|most|wrong,9|9|9|3|3,In this exam,of the students got,of the questions,.,14,"%{""instances"" => [%{""n_col"" => 12, ""rows"" => [9, 9, 9, 3, 3]}], ""number"" => 14, ""sequence"" => [""BBBCC"", ""BBBBC""], ""truth_table"" => []}",Thu Jan 30 2020 12:32:29 GMT-0800 (Pacific Standard Time),1580416349519,1|1|1|1|1|1|1|1|1|0|0|0|1|1|1|1|1|1|1|1|1|0|0|0|1|1|1|1|1|1|1|1|1|0|0|0|1|1|1|0|0|0|0|0|0|0|0|0|1|1|1|0|0|0|0|0|0|0|0|0,16.9862,main_trials,4
11759,,12236,31,all|most|some|none,all|most|some|none,right|wrong,5,This survey was very interesting. I like the experiment being done.,low,placeholder,Graduated High School,1580417368691,placeholder,83,male,English,Describe these results of <strong>Riverside</strong> so as to make it appear as if there is a <strong>low</strong> success rate without lying.,some|some|wrong,12|12|12|12|12,In this exam,of the students got,of the questions,.,20,"%{""instances"" => [%{""n_col"" => 12, ""rows"" => '\f\f\f\f\f'}], ""number"" => 20, ""sequence"" => [""AAAAA""], ""truth_table"" => []}",Thu Jan 30 2020 12:32:29 GMT-0800 (Pacific Standard Time),1580416349519,1|1|1|1|1|1|1|1|1|1|1|1|1|1|1|1|1|1|1|1|1|1|1|1|1|1|1|1|1|1|1|1|1|1|1|1|1|1|1|1|1|1|1|1|1|1|1|1|1|1|1|1|1|1|1|1|1|1|1|1,16.9862,main_trials,5
11759,,27697,31,all|most|some|none,all|most|some|none,right|wrong,5,This survey was very interesting. I like the experiment being done.,low,placeholder,Graduated High School,1580417368691,placeholder,83,male,English,Describe these results of <strong>Riverside</strong> so as to make it appear as if there is a <strong>low</strong> success rate without lying.,most|some|right,9|9|3|0|0,In this exam,of the students got,of the questions,.,6,"%{""instances"" => [%{""n_col"" => 12, ""rows"" => [9, 9, 3, 0, 0]}], ""number"" => 6, ""sequence"" => [""BCCCD"", ""BCCDD"", ""BBCDD"", ""BBCCD""], ""truth_table"" => []}",Thu Jan 30 2020 12:32:29 GMT-0800 (Pacific Standard Time),1580416349519,1|1|1|1|1|1|1|1|1|0|0|0|1|1|1|1|1|1|1|1|1|0|0|0|1|1|1|0|0|0|0|0|0|0|0|0|0|0|0|0|0|0|0|0|0|0|0|0|0|0|0|0|0|0|0|0|0|0|0|0,16.9862,main_trials,6
11759,,76045,31,all|most|some|none,all|most|some|none,right|wrong,5,This survey was very interesting. I like the experiment being done.,low,placeholder,Graduated High School,1580417368691,placeholder,83,male,English,Describe these results of <strong>Riverside</strong> so as to make it appear as if there is a <strong>low</strong> success rate without lying.,some|all|wrong,12|12|3|3|3,In this exam,of the students got,of the questions,.,13,"%{""instances"" => [%{""n_col"" => 12, ""rows"" => [12, 12, 3, 3, 3]}], ""number"" => 13, ""sequence"" => [""ACCCC"", ""AACCC"", ""ABCCC""], ""truth_table"" => []}",Thu Jan 30 2020 12:32:29 GMT-0800 (Pacific Standard Time),1580416349519,1|1|1|1|1|1|1|1|1|1|1|1|1|1|1|1|1|1|1|1|1|1|1|1|1|1|1|0|0|0|0|0|0|0|0|0|1|1|1|0|0|0|0|0|0|0|0|0|1|1|1|0|0|0|0|0|0|0|0|0,16.9862,main_trials,7
11759,,13235,31,all|most|some|none,all|most|some|none,right|wrong,5,This survey was very interesting. I like the experiment being done.,high,placeholder,Graduated High School,1580417368691,placeholder,83,male,English,Describe these results of <strong>Green Valley</strong> so as to make it appear as if there is a <strong>high</strong> success rate without lying.,most|some|right,0|0|0|0|0,In this exam,of the students got,of the questions,.,10,"%{""instances"" => [%{""n_col"" => 12, ""rows"" => [0, 0, 0, 0, 0]}], ""number"" => 10, ""sequence"" => [""DDDDD""], ""truth_table"" => []}",Thu Jan 30 2020 12:32:29 GMT-0800 (Pacific Standard Time),1580416349519,0|0|0|0|0|0|0|0|0|0|0|0|0|0|0|0|0|0|0|0|0|0|0|0|0|0|0|0|0|0|0|0|0|0|0|0|0|0|0|0|0|0|0|0|0|0|0|0|0|0|0|0|0|0|0|0|0|0|0|0,16.9862,main_trials,8
11759,,9487,31,all|most|some|none,all|most|some|none,right|wrong,5,This survey was very interesting. I like the experiment being done.,low,placeholder,Graduated High School,1580417368691,placeholder,83,male,English,Describe these results of <strong>Riverside</strong> so as to make it appear as if there is a <strong>low</strong> success rate without lying.,most|all|wrong,3|3|3|3|3,In this exam,of the students got,of the questions,.,11,"%{""instances"" => [%{""n_col"" => 12, ""rows"" => [3, 3, 3, 3, 3]}], ""number"" => 11, ""sequence"" => [""CCCCC""], ""truth_table"" => []}",Thu Jan 30 2020 12:32:29 GMT-0800 (Pacific Standard Time),1580416349519,1|1|1|0|0|0|0|0|0|0|0|0|1|1|1|0|0|0|0|0|0|0|0|0|1|1|1|0|0|0|0|0|0|0|0|0|1|1|1|0|0|0|0|0|0|0|0|0|1|1|1|0|0|0|0|0|0|0|0|0,16.9862,main_trials,9
11759,,114869,31,all|most|some|none,all|most|some|none,right|wrong,5,This survey was very interesting. I like the experiment being done.,low,placeholder,Graduated High School,1580417368691,placeholder,83,male,English,Describe these results of <strong>Riverside</strong> so as to make it appear as if there is a <strong>low</strong> success rate without lying.,most|all|wrong,12|12|3|0|0,In this exam,of the students got,of the questions,.,1,"%{""instances"" => [%{""n_col"" => 12, ""rows"" => [12, 12, 3, 0, 0]}], ""number"" => 1, ""sequence"" => [""ACCCD"", ""ACCDD"", ""AACDD"", ""AACCD"", ""ABCDD"", ""ABCCD""], ""truth_table"" => []}",Thu Jan 30 2020 12:32:29 GMT-0800 (Pacific Standard Time),1580416349519,1|1|1|1|1|1|1|1|1|1|1|1|1|1|1|1|1|1|1|1|1|1|1|1|1|1|1|0|0|0|0|0|0|0|0|0|0|0|0|0|0|0|0|0|0|0|0|0|0|0|0|0|0|0|0|0|0|0|0|0,16.9862,main_trials,10
11759,,6895,31,all|most|some|none,all|most|some|none,right|wrong,5,This survey was very interesting. I like the experiment being done.,high,placeholder,Graduated High School,1580417368691,placeholder,83,male,English,Describe these results of <strong>Green Valley</strong> so as to make it appear as if there is a <strong>high</strong> success rate without lying.,some|most|right,3|3|3|0|0,In this exam,of the students got,of the questions,.,5,"%{""instances"" => [%{""n_col"" => 12, ""rows"" => [3, 3, 3, 0, 0]}], ""number"" => 5, ""sequence"" => [""CCCDD"", ""CCCCD""], ""truth_table"" => []}",Thu Jan 30 2020 12:32:29 GMT-0800 (Pacific Standard Time),1580416349519,1|1|1|0|0|0|0|0|0|0|0|0|1|1|1|0|0|0|0|0|0|0|0|0|1|1|1|0|0|0|0|0|0|0|0|0|0|0|0|0|0|0|0|0|0|0|0|0|0|0|0|0|0|0|0|0|0|0|0|0,16.9862,main_trials,11
11759,,8138,31,all|most|some|none,all|most|some|none,right|wrong,5,This survey was very interesting. I like the experiment being done.,low,placeholder,Graduated High School,1580417368691,placeholder,83,male,English,Describe these results of <strong>Riverside</strong> so as to make it appear as if there is a <strong>low</strong> success rate without lying.,most|all|wrong,12|12|0|0|0,In this exam,of the students got,of the questions,.,4,"%{""instances"" => [%{""n_col"" => 12, ""rows"" => [12, 12, 0, 0, 0]}], ""number"" => 4, ""sequence"" => [""ADDDD"", ""AADDD"", ""ABDDD"", ""ACDDD""], ""truth_table"" => []}",Thu Jan 30 2020 12:32:29 GMT-0800 (Pacific Standard Time),1580416349519,1|1|1|1|1|1|1|1|1|1|1|1|1|1|1|1|1|1|1|1|1|1|1|1|0|0|0|0|0|0|0|0|0|0|0|0|0|0|0|0|0|0|0|0|0|0|0|0|0|0|0|0|0|0|0|0|0|0|0|0,16.9862,main_trials,12
11759,,6513,31,all|most|some|none,all|most|some|none,right|wrong,5,This survey was very interesting. I like the experiment being done.,high,placeholder,Graduated High School,1580417368691,placeholder,83,male,English,Describe these results of <strong>Green Valley</strong> so as to make it appear as if there is a <strong>high</strong> success rate without lying.,some|all|right,9|9|0|0|0,In this exam,of the students got,of the questions,.,3,"%{""instances"" => [%{""n_col"" => 12, ""rows"" => [9, 9, 0, 0, 0]}], ""number"" => 3, ""sequence"" => [""BDDDD"", ""BBDDD"", ""BCDDD""], ""truth_table"" => []}",Thu Jan 30 2020 12:32:29 GMT-0800 (Pacific Standard Time),1580416349519,1|1|1|1|1|1|1|1|1|0|0|0|1|1|1|1|1|1|1|1|1|0|0|0|0|0|0|0|0|0|0|0|0|0|0|0|0|0|0|0|0|0|0|0|0|0|0|0|0|0|0|0|0|0|0|0|0|0|0|0,16.9862,main_trials,13
11759,,5211,31,all|most|some|none,all|most|some|none,right|wrong,5,This survey was very interesting. I like the experiment being done.,high,placeholder,Graduated High School,1580417368691,placeholder,83,male,English,Describe these results of <strong>Green Valley</strong> so as to make it appear as if there is a <strong>high</strong> success rate without lying.,most|all|right,9|9|9|9|9,In this exam,of the students got,of the questions,.,17,"%{""instances"" => [%{""n_col"" => 12, ""rows"" => '\t\t\t\t\t'}], ""number"" => 17, ""sequence"" => [""BBBBB""], ""truth_table"" => []}",Thu Jan 30 2020 12:32:29 GMT-0800 (Pacific Standard Time),1580416349519,1|1|1|1|1|1|1|1|1|0|0|0|1|1|1|1|1|1|1|1|1|0|0|0|1|1|1|1|1|1|1|1|1|0|0|0|1|1|1|1|1|1|1|1|1|0|0|0|1|1|1|1|1|1|1|1|1|0|0|0,16.9862,main_trials,14
11759,,8954,31,all|most|some|none,all|most|some|none,right|wrong,5,This survey was very interesting. I like the experiment being done.,high,placeholder,Graduated High School,1580417368691,placeholder,83,male,English,Describe these results of <strong>Green Valley</strong> so as to make it appear as if there is a <strong>high</strong> success rate without lying.,some|all|right,12|12|9|0|0,In this exam,of the students got,of the questions,.,8,"%{""instances"" => [%{""n_col"" => 12, ""rows"" => [12, 12, 9, 0, 0]}], ""number"" => 8, ""sequence"" => [""ABBBD"", ""ABBDD"", ""AABDD"", ""ABBBD"", ""ABBCD"", ""AABCD""], ""truth_table"" => []}",Thu Jan 30 2020 12:32:29 GMT-0800 (Pacific Standard Time),1580416349519,1|1|1|1|1|1|1|1|1|1|1|1|1|1|1|1|1|1|1|1|1|1|1|1|1|1|1|1|1|1|1|1|1|0|0|0|0|0|0|0|0|0|0|0|0|0|0|0|0|0|0|0|0|0|0|0|0|0|0|0,16.9862,main_trials,15
11759,,5888,31,all|most|some|none,all|most|some|none,right|wrong,5,This survey was very interesting. I like the experiment being done.,low,placeholder,Graduated High School,1580417368691,placeholder,83,male,English,Describe these results of <strong>Riverside</strong> so as to make it appear as if there is a <strong>low</strong> success rate without lying.,most|all|wrong,9|9|9|0|0,In this exam,of the students got,of the questions,.,7,"%{""instances"" => [%{""n_col"" => 12, ""rows"" => [9, 9, 9, 0, 0]}], ""number"" => 7, ""sequence"" => [""BBBDD"", ""BBBBD"", ""BBBCD""], ""truth_table"" => []}",Thu Jan 30 2020 12:32:29 GMT-0800 (Pacific Standard Time),1580416349519,1|1|1|1|1|1|1|1|1|0|0|0|1|1|1|1|1|1|1|1|1|0|0|0|1|1|1|1|1|1|1|1|1|0|0|0|0|0|0|0|0|0|0|0|0|0|0|0|0|0|0|0|0|0|0|0|0|0|0|0,16.9862,main_trials,16
11759,,77870,31,all|most|some|none,all|most|some|none,right|wrong,5,This survey was very interesting. I like the experiment being done.,high,placeholder,Graduated High School,1580417368691,placeholder,83,male,English,Describe these results of <strong>Green Valley</strong> so as to make it appear as if there is a <strong>high</strong> success rate without lying.,some|most|right,3|3|0|0|0,In this exam,of the students got,of the questions,.,2,"%{""instances"" => [%{""n_col"" => 12, ""rows"" => [3, 3, 0, 0, 0]}], ""number"" => 2, ""sequence"" => [""CDDDD"", ""CCDDD""], ""truth_table"" => []}",Thu Jan 30 2020 12:32:29 GMT-0800 (Pacific Standard Time),1580416349519,1|1|1|0|0|0|0|0|0|0|0|0|1|1|1|0|0|0|0|0|0|0|0|0|0|0|0|0|0|0|0|0|0|0|0|0|0|0|0|0|0|0|0|0|0|0|0|0|0|0|0|0|0|0|0|0|0|0|0|0,16.9862,main_trials,17
11759,,5911,31,all|most|some|none,all|most|some|none,right|wrong,5,This survey was very interesting. I like the experiment being done.,high,placeholder,Graduated High School,1580417368691,placeholder,83,male,English,Describe these results of <strong>Green Valley</strong> so as to make it appear as if there is a <strong>high</strong> success rate without lying.,most|all|right,12|12|12|0|0,In this exam,of the students got,of the questions,.,9,"%{""instances"" => [%{""n_col"" => 12, ""rows"" => [12, 12, 12, 0, 0]}], ""number"" => 9, ""sequence"" => [""AAADD"", ""AAAAD"", ""AAABD"", ""AAACD""], ""truth_table"" => []}",Thu Jan 30 2020 12:32:29 GMT-0800 (Pacific Standard Time),1580416349519,1|1|1|1|1|1|1|1|1|1|1|1|1|1|1|1|1|1|1|1|1|1|1|1|1|1|1|1|1|1|1|1|1|1|1|1|0|0|0|0|0|0|0|0|0|0|0|0|0|0|0|0|0|0|0|0|0|0|0|0,16.9862,main_trials,18
11759,,5529,31,all|most|some|none,all|most|some|none,right|wrong,5,This survey was very interesting. I like the experiment being done.,high,placeholder,Graduated High School,1580417368691,placeholder,83,male,English,Describe these results of <strong>Green Valley</strong> so as to make it appear as if there is a <strong>high</strong> success rate without lying.,most|all|right,12|12|9|3|3,In this exam,of the students got,of the questions,.,15,"%{""instances"" => [%{""n_col"" => 12, ""rows"" => [12, 12, 9, 3, 3]}], ""number"" => 15, ""sequence"" => [""ABBBC"", ""ABBCC"", ""AABCC"", ""AABBC""], ""truth_table"" => []}",Thu Jan 30 2020 12:32:29 GMT-0800 (Pacific Standard Time),1580416349519,1|1|1|1|1|1|1|1|1|1|1|1|1|1|1|1|1|1|1|1|1|1|1|1|1|1|1|1|1|1|1|1|1|0|0|0|1|1|1|0|0|0|0|0|0|0|0|0|1|1|1|0|0|0|0|0|0|0|0|0,16.9862,main_trials,19
11759,,9487,31,all|most|some|none,all|most|some|none,right|wrong,5,This survey was very interesting. I like the experiment being done.,low,placeholder,Graduated High School,1580417368691,placeholder,83,male,English,Describe these results of <strong>Riverside</strong> so as to make it appear as if there is a <strong>low</strong> success rate without lying.,some|all|wrong,12|12|9|9|9,In this exam,of the students got,of the questions,.,18,"%{""instances"" => [%{""n_col"" => 12, ""rows"" => '\f\f\t\t\t'}], ""number"" => 18, ""sequence"" => [""ABBBB"", ""AABBB""], ""truth_table"" => []}",Thu Jan 30 2020 12:32:29 GMT-0800 (Pacific Standard Time),1580416349519,1|1|1|1|1|1|1|1|1|1|1|1|1|1|1|1|1|1|1|1|1|1|1|1|1|1|1|1|1|1|1|1|1|0|0|0|1|1|1|1|1|1|1|1|1|0|0|0|1|1|1|1|1|1|1|1|1|0|0|0,16.9862,main_trials,20
11761,,26108,51,all|most|some|none,all|most|some|none,right|wrong,5,,low,placeholder,Graduated College,1580417443367,placeholder,83,female,English,Describe these results of <strong>Riverside</strong> so as to make it appear as if there is a <strong>low</strong> success rate without lying.,some|all|right,12|12|0|0|0,In this exam,of the students got,of the questions,.,4,"%{""instances"" => [%{""n_col"" => 12, ""rows"" => [12, 12, 0, 0, 0]}], ""number"" => 4, ""sequence"" => [""ADDDD"", ""AADDD"", ""ABDDD"", ""ACDDD""], ""truth_table"" => []}",Thu Jan 30 2020 20:40:50 GMT+0000 (GMT),1580416850518,1|1|1|1|1|1|1|1|1|1|1|1|1|1|1|1|1|1|1|1|1|1|1|1|0|0|0|0|0|0|0|0|0|0|0|0|0|0|0|0|0|0|0|0|0|0|0|0|0|0|0|0|0|0|0|0|0|0|0|0,9.88081666666667,training_trials,1
11761,,12855,51,all|most|some|none,all|most|some|none,right|wrong,5,,high,placeholder,Graduated College,1580417443367,placeholder,83,female,English,Describe these results of <strong>Green Valley</strong> so as to make it appear as if there is a <strong>high</strong> success rate without lying.,some|all|right,12|12|0|0|0,In this exam,of the students got,of the questions,.,4,"%{""instances"" => [%{""n_col"" => 12, ""rows"" => [12, 12, 0, 0, 0]}], ""number"" => 4, ""sequence"" => [""ADDDD"", ""AADDD"", ""ABDDD"", ""ACDDD""], ""truth_table"" => []}",Thu Jan 30 2020 20:40:50 GMT+0000 (GMT),1580416850518,1|1|1|1|1|1|1|1|1|1|1|1|1|1|1|1|1|1|1|1|1|1|1|1|0|0|0|0|0|0|0|0|0|0|0|0|0|0|0|0|0|0|0|0|0|0|0|0|0|0|0|0|0|0|0|0|0|0|0|0,9.88081666666667,training_trials,2
11761,,20252,51,all|most|some|none,all|most|some|none,right|wrong,5,,low,placeholder,Graduated College,1580417443367,placeholder,83,female,English,Describe these results of <strong>Riverside</strong> so as to make it appear as if there is a <strong>low</strong> success rate without lying.,most|most|wrong,9|9|3|3|3,In this exam,of the students got,of the questions,.,12,"%{""instances"" => [%{""n_col"" => 12, ""rows"" => [9, 9, 3, 3, 3]}], ""number"" => 12, ""sequence"" => [""BCCCC"", ""BBCCC""], ""truth_table"" => []}",Thu Jan 30 2020 20:40:50 GMT+0000 (GMT),1580416850518,1|1|1|1|1|1|1|1|1|0|0|0|1|1|1|1|1|1|1|1|1|0|0|0|1|1|1|0|0|0|0|0|0|0|0|0|1|1|1|0|0|0|0|0|0|0|0|0|1|1|1|0|0|0|0|0|0|0|0|0,9.88081666666667,training_trials,3
11761,,16428,51,all|most|some|none,all|most|some|none,right|wrong,5,,high,placeholder,Graduated College,1580417443367,placeholder,83,female,English,Describe these results of <strong>Green Valley</strong> so as to make it appear as if there is a <strong>high</strong> success rate without lying.,some|most|right,9|9|3|3|3,In this exam,of the students got,of the questions,.,12,"%{""instances"" => [%{""n_col"" => 12, ""rows"" => [9, 9, 3, 3, 3]}], ""number"" => 12, ""sequence"" => [""BCCCC"", ""BBCCC""], ""truth_table"" => []}",Thu Jan 30 2020 20:40:50 GMT+0000 (GMT),1580416850518,1|1|1|1|1|1|1|1|1|0|0|0|1|1|1|1|1|1|1|1|1|0|0|0|1|1|1|0|0|0|0|0|0|0|0|0|1|1|1|0|0|0|0|0|0|0|0|0|1|1|1|0|0|0|0|0|0|0|0|0,9.88081666666667,training_trials,4
11761,,21692,51,all|most|some|none,all|most|some|none,right|wrong,5,,high,placeholder,Graduated College,1580417443367,placeholder,83,female,English,Describe these results of <strong>Green Valley</strong> so as to make it appear as if there is a <strong>high</strong> success rate without lying.,most|most|right,9|9|3|0|0,In this exam,of the students got,of the questions,.,6,"%{""instances"" => [%{""n_col"" => 12, ""rows"" => [9, 9, 3, 0, 0]}], ""number"" => 6, ""sequence"" => [""BCCCD"", ""BCCDD"", ""BBCDD"", ""BBCCD""], ""truth_table"" => []}",Thu Jan 30 2020 20:40:50 GMT+0000 (GMT),1580416850518,1|1|1|1|1|1|1|1|1|0|0|0|1|1|1|1|1|1|1|1|1|0|0|0|1|1|1|0|0|0|0|0|0|0|0|0|0|0|0|0|0|0|0|0|0|0|0|0|0|0|0|0|0|0|0|0|0|0|0|0,9.88081666666667,main_trials,1
11761,,18244,51,all|most|some|none,all|most|some|none,right|wrong,5,,low,placeholder,Graduated College,1580417443367,placeholder,83,female,English,Describe these results of <strong>Riverside</strong> so as to make it appear as if there is a <strong>low</strong> success rate without lying.,all|most|wrong,3|3|3|3|3,In this exam,of the students got,of the questions,.,11,"%{""instances"" => [%{""n_col"" => 12, ""rows"" => [3, 3, 3, 3, 3]}], ""number"" => 11, ""sequence"" => [""CCCCC""], ""truth_table"" => []}",Thu Jan 30 2020 20:40:50 GMT+0000 (GMT),1580416850518,1|1|1|0|0|0|0|0|0|0|0|0|1|1|1|0|0|0|0|0|0|0|0|0|1|1|1|0|0|0|0|0|0|0|0|0|1|1|1|0|0|0|0|0|0|0|0|0|1|1|1|0|0|0|0|0|0|0|0|0,9.88081666666667,main_trials,2
11761,,10628,51,all|most|some|none,all|most|some|none,right|wrong,5,,high,placeholder,Graduated College,1580417443367,placeholder,83,female,English,Describe these results of <strong>Green Valley</strong> so as to make it appear as if there is a <strong>high</strong> success rate without lying.,most|all|right,12|12|12|0|0,In this exam,of the students got,of the questions,.,9,"%{""instances"" => [%{""n_col"" => 12, ""rows"" => [12, 12, 12, 0, 0]}], ""number"" => 9, ""sequence"" => [""AAADD"", ""AAAAD"", ""AAABD"", ""AAACD""], ""truth_table"" => []}",Thu Jan 30 2020 20:40:50 GMT+0000 (GMT),1580416850518,1|1|1|1|1|1|1|1|1|1|1|1|1|1|1|1|1|1|1|1|1|1|1|1|1|1|1|1|1|1|1|1|1|1|1|1|0|0|0|0|0|0|0|0|0|0|0|0|0|0|0|0|0|0|0|0|0|0|0|0,9.88081666666667,main_trials,3
11761,,19111,51,all|most|some|none,all|most|some|none,right|wrong,5,,low,placeholder,Graduated College,1580417443367,placeholder,83,female,English,Describe these results of <strong>Riverside</strong> so as to make it appear as if there is a <strong>low</strong> success rate without lying.,most|most|wrong,9|9|3|3|3,In this exam,of the students got,of the questions,.,12,"%{""instances"" => [%{""n_col"" => 12, ""rows"" => [9, 9, 3, 3, 3]}], ""number"" => 12, ""sequence"" => [""BCCCC"", ""BBCCC""], ""truth_table"" => []}",Thu Jan 30 2020 20:40:50 GMT+0000 (GMT),1580416850518,1|1|1|1|1|1|1|1|1|0|0|0|1|1|1|1|1|1|1|1|1|0|0|0|1|1|1|0|0|0|0|0|0|0|0|0|1|1|1|0|0|0|0|0|0|0|0|0|1|1|1|0|0|0|0|0|0|0|0|0,9.88081666666667,main_trials,4
11761,,18317,51,all|most|some|none,all|most|some|none,right|wrong,5,,low,placeholder,Graduated College,1580417443367,placeholder,83,female,English,Describe these results of <strong>Riverside</strong> so as to make it appear as if there is a <strong>low</strong> success rate without lying.,some|all|wrong,12|12|9|0|0,In this exam,of the students got,of the questions,.,8,"%{""instances"" => [%{""n_col"" => 12, ""rows"" => [12, 12, 9, 0, 0]}], ""number"" => 8, ""sequence"" => [""ABBBD"", ""ABBDD"", ""AABDD"", ""ABBBD"", ""ABBCD"", ""AABCD""], ""truth_table"" => []}",Thu Jan 30 2020 20:40:50 GMT+0000 (GMT),1580416850518,1|1|1|1|1|1|1|1|1|1|1|1|1|1|1|1|1|1|1|1|1|1|1|1|1|1|1|1|1|1|1|1|1|0|0|0|0|0|0|0|0|0|0|0|0|0|0|0|0|0|0|0|0|0|0|0|0|0|0|0,9.88081666666667,main_trials,5
11761,,35977,51,all|most|some|none,all|most|some|none,right|wrong,5,,high,placeholder,Graduated College,1580417443367,placeholder,83,female,English,Describe these results of <strong>Green Valley</strong> so as to make it appear as if there is a <strong>high</strong> success rate without lying.,all|some|wrong,0|0|0|0|0,In this exam,of the students got,of the questions,.,10,"%{""instances"" => [%{""n_col"" => 12, ""rows"" => [0, 0, 0, 0, 0]}], ""number"" => 10, ""sequence"" => [""DDDDD""], ""truth_table"" => []}",Thu Jan 30 2020 20:40:50 GMT+0000 (GMT),1580416850518,0|0|0|0|0|0|0|0|0|0|0|0|0|0|0|0|0|0|0|0|0|0|0|0|0|0|0|0|0|0|0|0|0|0|0|0|0|0|0|0|0|0|0|0|0|0|0|0|0|0|0|0|0|0|0|0|0|0|0|0,9.88081666666667,main_trials,6
11761,,15333,51,all|most|some|none,all|most|some|none,right|wrong,5,,high,placeholder,Graduated College,1580417443367,placeholder,83,female,English,Describe these results of <strong>Green Valley</strong> so as to make it appear as if there is a <strong>high</strong> success rate without lying.,all|most|right,9|9|9|3|3,In this exam,of the students got,of the questions,.,14,"%{""instances"" => [%{""n_col"" => 12, ""rows"" => [9, 9, 9, 3, 3]}], ""number"" => 14, ""sequence"" => [""BBBCC"", ""BBBBC""], ""truth_table"" => []}",Thu Jan 30 2020 20:40:50 GMT+0000 (GMT),1580416850518,1|1|1|1|1|1|1|1|1|0|0|0|1|1|1|1|1|1|1|1|1|0|0|0|1|1|1|1|1|1|1|1|1|0|0|0|1|1|1|0|0|0|0|0|0|0|0|0|1|1|1|0|0|0|0|0|0|0|0|0,9.88081666666667,main_trials,7
11761,,13215,51,all|most|some|none,all|most|some|none,right|wrong,5,,high,placeholder,Graduated College,1580417443367,placeholder,83,female,English,Describe these results of <strong>Green Valley</strong> so as to make it appear as if there is a <strong>high</strong> success rate without lying.,some|all|right,12|12|0|0|0,In this exam,of the students got,of the questions,.,4,"%{""instances"" => [%{""n_col"" => 12, ""rows"" => [12, 12, 0, 0, 0]}], ""number"" => 4, ""sequence"" => [""ADDDD"", ""AADDD"", ""ABDDD"", ""ACDDD""], ""truth_table"" => []}",Thu Jan 30 2020 20:40:50 GMT+0000 (GMT),1580416850518,1|1|1|1|1|1|1|1|1|1|1|1|1|1|1|1|1|1|1|1|1|1|1|1|0|0|0|0|0|0|0|0|0|0|0|0|0|0|0|0|0|0|0|0|0|0|0|0|0|0|0|0|0|0|0|0|0|0|0|0,9.88081666666667,main_trials,8
11761,,11702,51,all|most|some|none,all|most|some|none,right|wrong,5,,low,placeholder,Graduated College,1580417443367,placeholder,83,female,English,Describe these results of <strong>Riverside</strong> so as to make it appear as if there is a <strong>low</strong> success rate without lying.,some|some|wrong,12|12|12|9|9,In this exam,of the students got,of the questions,.,19,"%{""instances"" => [%{""n_col"" => 12, ""rows"" => '\f\f\f\t\t'}], ""number"" => 19, ""sequence"" => [""AAABB"", ""AAAAB""], ""truth_table"" => []}",Thu Jan 30 2020 20:40:50 GMT+0000 (GMT),1580416850518,1|1|1|1|1|1|1|1|1|1|1|1|1|1|1|1|1|1|1|1|1|1|1|1|1|1|1|1|1|1|1|1|1|1|1|1|1|1|1|1|1|1|1|1|1|0|0|0|1|1|1|1|1|1|1|1|1|0|0|0,9.88081666666667,main_trials,9
11761,,10235,51,all|most|some|none,all|most|some|none,right|wrong,5,,high,placeholder,Graduated College,1580417443367,placeholder,83,female,English,Describe these results of <strong>Green Valley</strong> so as to make it appear as if there is a <strong>high</strong> success rate without lying.,most|most|right,9|9|9|0|0,In this exam,of the students got,of the questions,.,7,"%{""instances"" => [%{""n_col"" => 12, ""rows"" => [9, 9, 9, 0, 0]}], ""number"" => 7, ""sequence"" => [""BBBDD"", ""BBBBD"", ""BBBCD""], ""truth_table"" => []}",Thu Jan 30 2020 20:40:50 GMT+0000 (GMT),1580416850518,1|1|1|1|1|1|1|1|1|0|0|0|1|1|1|1|1|1|1|1|1|0|0|0|1|1|1|1|1|1|1|1|1|0|0|0|0|0|0|0|0|0|0|0|0|0|0|0|0|0|0|0|0|0|0|0|0|0|0|0,9.88081666666667,main_trials,10
11761,,14562,51,all|most|some|none,all|most|some|none,right|wrong,5,,low,placeholder,Graduated College,1580417443367,placeholder,83,female,English,Describe these results of <strong>Riverside</strong> so as to make it appear as if there is a <strong>low</strong> success rate without lying.,all|some|wrong,9|9|9|9|9,In this exam,of the students got,of the questions,.,17,"%{""instances"" => [%{""n_col"" => 12, ""rows"" => '\t\t\t\t\t'}], ""number"" => 17, ""sequence"" => [""BBBBB""], ""truth_table"" => []}",Thu Jan 30 2020 20:40:50 GMT+0000 (GMT),1580416850518,1|1|1|1|1|1|1|1|1|0|0|0|1|1|1|1|1|1|1|1|1|0|0|0|1|1|1|1|1|1|1|1|1|0|0|0|1|1|1|1|1|1|1|1|1|0|0|0|1|1|1|1|1|1|1|1|1|0|0|0,9.88081666666667,main_trials,11
11761,,13494,51,all|most|some|none,all|most|some|none,right|wrong,5,,low,placeholder,Graduated College,1580417443367,placeholder,83,female,English,Describe these results of <strong>Riverside</strong> so as to make it appear as if there is a <strong>low</strong> success rate without lying.,most|most|wrong,12|12|3|0|0,In this exam,of the students got,of the questions,.,1,"%{""instances"" => [%{""n_col"" => 12, ""rows"" => [12, 12, 3, 0, 0]}], ""number"" => 1, ""sequence"" => [""ACCCD"", ""ACCDD"", ""AACDD"", ""AACCD"", ""ABCDD"", ""ABCCD""], ""truth_table"" => []}",Thu Jan 30 2020 20:40:50 GMT+0000 (GMT),1580416850518,1|1|1|1|1|1|1|1|1|1|1|1|1|1|1|1|1|1|1|1|1|1|1|1|1|1|1|0|0|0|0|0|0|0|0|0|0|0|0|0|0|0|0|0|0|0|0|0|0|0|0|0|0|0|0|0|0|0|0|0,9.88081666666667,main_trials,12
11761,,13443,51,all|most|some|none,all|most|some|none,right|wrong,5,,low,placeholder,Graduated College,1580417443367,placeholder,83,female,English,Describe these results of <strong>Riverside</strong> so as to make it appear as if there is a <strong>low</strong> success rate without lying.,most|some|wrong,12|12|3|3|3,In this exam,of the students got,of the questions,.,13,"%{""instances"" => [%{""n_col"" => 12, ""rows"" => [12, 12, 3, 3, 3]}], ""number"" => 13, ""sequence"" => [""ACCCC"", ""AACCC"", ""ABCCC""], ""truth_table"" => []}",Thu Jan 30 2020 20:40:50 GMT+0000 (GMT),1580416850518,1|1|1|1|1|1|1|1|1|1|1|1|1|1|1|1|1|1|1|1|1|1|1|1|1|1|1|0|0|0|0|0|0|0|0|0|1|1|1|0|0|0|0|0|0|0|0|0|1|1|1|0|0|0|0|0|0|0|0|0,9.88081666666667,main_trials,13
11761,,10238,51,all|most|some|none,all|most|some|none,right|wrong,5,,high,placeholder,Graduated College,1580417443367,placeholder,83,female,English,Describe these results of <strong>Green Valley</strong> so as to make it appear as if there is a <strong>high</strong> success rate without lying.,some|some|right,3|3|0|0|0,In this exam,of the students got,of the questions,.,2,"%{""instances"" => [%{""n_col"" => 12, ""rows"" => [3, 3, 0, 0, 0]}], ""number"" => 2, ""sequence"" => [""CDDDD"", ""CCDDD""], ""truth_table"" => []}",Thu Jan 30 2020 20:40:50 GMT+0000 (GMT),1580416850518,1|1|1|0|0|0|0|0|0|0|0|0|1|1|1|0|0|0|0|0|0|0|0|0|0|0|0|0|0|0|0|0|0|0|0|0|0|0|0|0|0|0|0|0|0|0|0|0|0|0|0|0|0|0|0|0|0|0|0|0,9.88081666666667,main_trials,14
11761,,11737,51,all|most|some|none,all|most|some|none,right|wrong,5,,low,placeholder,Graduated College,1580417443367,placeholder,83,female,English,Describe these results of <strong>Riverside</strong> so as to make it appear as if there is a <strong>low</strong> success rate without lying.,all|most|right,12|12|12|12|12,In this exam,of the students got,of the questions,.,20,"%{""instances"" => [%{""n_col"" => 12, ""rows"" => '\f\f\f\f\f'}], ""number"" => 20, ""sequence"" => [""AAAAA""], ""truth_table"" => []}",Thu Jan 30 2020 20:40:50 GMT+0000 (GMT),1580416850518,1|1|1|1|1|1|1|1|1|1|1|1|1|1|1|1|1|1|1|1|1|1|1|1|1|1|1|1|1|1|1|1|1|1|1|1|1|1|1|1|1|1|1|1|1|1|1|1|1|1|1|1|1|1|1|1|1|1|1|1,9.88081666666667,main_trials,15
11761,,14108,51,all|most|some|none,all|most|some|none,right|wrong,5,,low,placeholder,Graduated College,1580417443367,placeholder,83,female,English,Describe these results of <strong>Riverside</strong> so as to make it appear as if there is a <strong>low</strong> success rate without lying.,most|all|wrong,9|9|0|0|0,In this exam,of the students got,of the questions,.,3,"%{""instances"" => [%{""n_col"" => 12, ""rows"" => [9, 9, 0, 0, 0]}], ""number"" => 3, ""sequence"" => [""BDDDD"", ""BBDDD"", ""BCDDD""], ""truth_table"" => []}",Thu Jan 30 2020 20:40:50 GMT+0000 (GMT),1580416850518,1|1|1|1|1|1|1|1|1|0|0|0|1|1|1|1|1|1|1|1|1|0|0|0|0|0|0|0|0|0|0|0|0|0|0|0|0|0|0|0|0|0|0|0|0|0|0|0|0|0|0|0|0|0|0|0|0|0|0|0,9.88081666666667,main_trials,16
11761,,12534,51,all|most|some|none,all|most|some|none,right|wrong,5,,high,placeholder,Graduated College,1580417443367,placeholder,83,female,English,Describe these results of <strong>Green Valley</strong> so as to make it appear as if there is a <strong>high</strong> success rate without lying.,most|all|right,12|12|12|3|3,In this exam,of the students got,of the questions,.,16,"%{""instances"" => [%{""n_col"" => 12, ""rows"" => [12, 12, 12, 3, 3]}], ""number"" => 16, ""sequence"" => [""AAACC"", ""AAAAC"", ""AAABC""], ""truth_table"" => []}",Thu Jan 30 2020 20:40:50 GMT+0000 (GMT),1580416850518,1|1|1|1|1|1|1|1|1|1|1|1|1|1|1|1|1|1|1|1|1|1|1|1|1|1|1|1|1|1|1|1|1|1|1|1|1|1|1|0|0|0|0|0|0|0|0|0|1|1|1|0|0|0|0|0|0|0|0|0,9.88081666666667,main_trials,17
11761,,10901,51,all|most|some|none,all|most|some|none,right|wrong,5,,high,placeholder,Graduated College,1580417443367,placeholder,83,female,English,Describe these results of <strong>Green Valley</strong> so as to make it appear as if there is a <strong>high</strong> success rate without lying.,most|some|right,3|3|3|0|0,In this exam,of the students got,of the questions,.,5,"%{""instances"" => [%{""n_col"" => 12, ""rows"" => [3, 3, 3, 0, 0]}], ""number"" => 5, ""sequence"" => [""CCCDD"", ""CCCCD""], ""truth_table"" => []}",Thu Jan 30 2020 20:40:50 GMT+0000 (GMT),1580416850518,1|1|1|0|0|0|0|0|0|0|0|0|1|1|1|0|0|0|0|0|0|0|0|0|1|1|1|0|0|0|0|0|0|0|0|0|0|0|0|0|0|0|0|0|0|0|0|0|0|0|0|0|0|0|0|0|0|0|0|0,9.88081666666667,main_trials,18
11761,,19207,51,all|most|some|none,all|most|some|none,right|wrong,5,,low,placeholder,Graduated College,1580417443367,placeholder,83,female,English,Describe these results of <strong>Riverside</strong> so as to make it appear as if there is a <strong>low</strong> success rate without lying.,some|most|wrong,12|12|9|3|3,In this exam,of the students got,of the questions,.,15,"%{""instances"" => [%{""n_col"" => 12, ""rows"" => [12, 12, 9, 3, 3]}], ""number"" => 15, ""sequence"" => [""ABBBC"", ""ABBCC"", ""AABCC"", ""AABBC""], ""truth_table"" => []}",Thu Jan 30 2020 20:40:50 GMT+0000 (GMT),1580416850518,1|1|1|1|1|1|1|1|1|1|1|1|1|1|1|1|1|1|1|1|1|1|1|1|1|1|1|1|1|1|1|1|1|0|0|0|1|1|1|0|0|0|0|0|0|0|0|0|1|1|1|0|0|0|0|0|0|0|0|0,9.88081666666667,main_trials,19
11761,,9549,51,all|most|some|none,all|most|some|none,right|wrong,5,,high,placeholder,Graduated College,1580417443367,placeholder,83,female,English,Describe these results of <strong>Green Valley</strong> so as to make it appear as if there is a <strong>high</strong> success rate without lying.,all|most|right,12|12|9|9|9,In this exam,of the students got,of the questions,.,18,"%{""instances"" => [%{""n_col"" => 12, ""rows"" => '\f\f\t\t\t'}], ""number"" => 18, ""sequence"" => [""ABBBB"", ""AABBB""], ""truth_table"" => []}",Thu Jan 30 2020 20:40:50 GMT+0000 (GMT),1580416850518,1|1|1|1|1|1|1|1|1|1|1|1|1|1|1|1|1|1|1|1|1|1|1|1|1|1|1|1|1|1|1|1|1|0|0|0|1|1|1|1|1|1|1|1|1|0|0|0|1|1|1|1|1|1|1|1|1|0|0|0,9.88081666666667,main_trials,20
11745,,16920,55,all|most|some|none,all|most|some|none,right|wrong,5,,high,placeholder,Higher Degree,1580416709542,placeholder,83,female,English,Describe these results of <strong>Green Valley</strong> so as to make it appear as if there is a <strong>high</strong> success rate without lying.,most|all|right,9|9|3|3|3,In this exam,of the students got,of the questions,.,12,"%{""instances"" => [%{""n_col"" => 12, ""rows"" => [9, 9, 3, 3, 3]}], ""number"" => 12, ""sequence"" => [""BCCCC"", ""BBCCC""], ""truth_table"" => []}",Thu Jan 30 2020 20:29:42 GMT+0000 (Greenwich Mean Time),1580416182800,1|1|1|1|1|1|1|1|1|0|0|0|1|1|1|1|1|1|1|1|1|0|0|0|1|1|1|0|0|0|0|0|0|0|0|0|1|1|1|0|0|0|0|0|0|0|0|0|1|1|1|0|0|0|0|0|0|0|0|0,8.77903333333333,training_trials,1
11745,,18225,55,all|most|some|none,all|most|some|none,right|wrong,5,,low,placeholder,Higher Degree,1580416709542,placeholder,83,female,English,Describe these results of <strong>Riverside</strong> so as to make it appear as if there is a <strong>low</strong> success rate without lying.,some|some|wrong,12|12|0|0|0,In this exam,of the students got,of the questions,.,4,"%{""instances"" => [%{""n_col"" => 12, ""rows"" => [12, 12, 0, 0, 0]}], ""number"" => 4, ""sequence"" => [""ADDDD"", ""AADDD"", ""ABDDD"", ""ACDDD""], ""truth_table"" => []}",Thu Jan 30 2020 20:29:42 GMT+0000 (Greenwich Mean Time),1580416182800,1|1|1|1|1|1|1|1|1|1|1|1|1|1|1|1|1|1|1|1|1|1|1|1|0|0|0|0|0|0|0|0|0|0|0|0|0|0|0|0|0|0|0|0|0|0|0|0|0|0|0|0|0|0|0|0|0|0|0|0,8.77903333333333,training_trials,2
11745,,21473,55,all|most|some|none,all|most|some|none,right|wrong,5,,low,placeholder,Higher Degree,1580416709542,placeholder,83,female,English,Describe these results of <strong>Riverside</strong> so as to make it appear as if there is a <strong>low</strong> success rate without lying.,most|most|wrong,9|9|3|3|3,In this exam,of the students got,of the questions,.,12,"%{""instances"" => [%{""n_col"" => 12, ""rows"" => [9, 9, 3, 3, 3]}], ""number"" => 12, ""sequence"" => [""BCCCC"", ""BBCCC""], ""truth_table"" => []}",Thu Jan 30 2020 20:29:42 GMT+0000 (Greenwich Mean Time),1580416182800,1|1|1|1|1|1|1|1|1|0|0|0|1|1|1|1|1|1|1|1|1|0|0|0|1|1|1|0|0|0|0|0|0|0|0|0|1|1|1|0|0|0|0|0|0|0|0|0|1|1|1|0|0|0|0|0|0|0|0|0,8.77903333333333,training_trials,3
11745,,19380,55,all|most|some|none,all|most|some|none,right|wrong,5,,high,placeholder,Higher Degree,1580416709542,placeholder,83,female,English,Describe these results of <strong>Green Valley</strong> so as to make it appear as if there is a <strong>high</strong> success rate without lying.,most|most|right,12|12|0|0|0,In this exam,of the students got,of the questions,.,4,"%{""instances"" => [%{""n_col"" => 12, ""rows"" => [12, 12, 0, 0, 0]}], ""number"" => 4, ""sequence"" => [""ADDDD"", ""AADDD"", ""ABDDD"", ""ACDDD""], ""truth_table"" => []}",Thu Jan 30 2020 20:29:42 GMT+0000 (Greenwich Mean Time),1580416182800,1|1|1|1|1|1|1|1|1|1|1|1|1|1|1|1|1|1|1|1|1|1|1|1|0|0|0|0|0|0|0|0|0|0|0|0|0|0|0|0|0|0|0|0|0|0|0|0|0|0|0|0|0|0|0|0|0|0|0|0,8.77903333333333,training_trials,4
11745,,18239,55,all|most|some|none,all|most|some|none,right|wrong,5,,low,placeholder,Higher Degree,1580416709542,placeholder,83,female,English,Describe these results of <strong>Riverside</strong> so as to make it appear as if there is a <strong>low</strong> success rate without lying.,some||right,12|12|3|0|0,In this exam,of the students got,of the questions,.,1,"%{""instances"" => [%{""n_col"" => 12, ""rows"" => [12, 12, 3, 0, 0]}], ""number"" => 1, ""sequence"" => [""ACCCD"", ""ACCDD"", ""AACDD"", ""AACCD"", ""ABCDD"", ""ABCCD""], ""truth_table"" => []}",Thu Jan 30 2020 20:29:42 GMT+0000 (Greenwich Mean Time),1580416182800,1|1|1|1|1|1|1|1|1|1|1|1|1|1|1|1|1|1|1|1|1|1|1|1|1|1|1|0|0|0|0|0|0|0|0|0|0|0|0|0|0|0|0|0|0|0|0|0|0|0|0|0|0|0|0|0|0|0|0|0,8.77903333333333,main_trials,1
11745,,13917,55,all|most|some|none,all|most|some|none,right|wrong,5,,high,placeholder,Higher Degree,1580416709542,placeholder,83,female,English,Describe these results of <strong>Green Valley</strong> so as to make it appear as if there is a <strong>high</strong> success rate without lying.,most|most|right,12|12|9|3|3,In this exam,of the students got,of the questions,.,15,"%{""instances"" => [%{""n_col"" => 12, ""rows"" => [12, 12, 9, 3, 3]}], ""number"" => 15, ""sequence"" => [""ABBBC"", ""ABBCC"", ""AABCC"", ""AABBC""], ""truth_table"" => []}",Thu Jan 30 2020 20:29:42 GMT+0000 (Greenwich Mean Time),1580416182800,1|1|1|1|1|1|1|1|1|1|1|1|1|1|1|1|1|1|1|1|1|1|1|1|1|1|1|1|1|1|1|1|1|0|0|0|1|1|1|0|0|0|0|0|0|0|0|0|1|1|1|0|0|0|0|0|0|0|0|0,8.77903333333333,main_trials,2
11745,,10985,55,all|most|some|none,all|most|some|none,right|wrong,5,,high,placeholder,Higher Degree,1580416709542,placeholder,83,female,English,Describe these results of <strong>Green Valley</strong> so as to make it appear as if there is a <strong>high</strong> success rate without lying.,most|most|right,12|12|9|0|0,In this exam,of the students got,of the questions,.,8,"%{""instances"" => [%{""n_col"" => 12, ""rows"" => [12, 12, 9, 0, 0]}], ""number"" => 8, ""sequence"" => [""ABBBD"", ""ABBDD"", ""AABDD"", ""ABBBD"", ""ABBCD"", ""AABCD""], ""truth_table"" => []}",Thu Jan 30 2020 20:29:42 GMT+0000 (Greenwich Mean Time),1580416182800,1|1|1|1|1|1|1|1|1|1|1|1|1|1|1|1|1|1|1|1|1|1|1|1|1|1|1|1|1|1|1|1|1|0|0|0|0|0|0|0|0|0|0|0|0|0|0|0|0|0|0|0|0|0|0|0|0|0|0|0,8.77903333333333,main_trials,3
11745,,21329,55,all|most|some|none,all|most|some|none,right|wrong,5,,low,placeholder,Higher Degree,1580416709542,placeholder,83,female,English,Describe these results of <strong>Riverside</strong> so as to make it appear as if there is a <strong>low</strong> success rate without lying.,some|some|right,9|9|9|9|9,In this exam,of the students got,of the questions,.,17,"%{""instances"" => [%{""n_col"" => 12, ""rows"" => '\t\t\t\t\t'}], ""number"" => 17, ""sequence"" => [""BBBBB""], ""truth_table"" => []}",Thu Jan 30 2020 20:29:42 GMT+0000 (Greenwich Mean Time),1580416182800,1|1|1|1|1|1|1|1|1|0|0|0|1|1|1|1|1|1|1|1|1|0|0|0|1|1|1|1|1|1|1|1|1|0|0|0|1|1|1|1|1|1|1|1|1|0|0|0|1|1|1|1|1|1|1|1|1|0|0|0,8.77903333333333,main_trials,4
11745,,9193,55,all|most|some|none,all|most|some|none,right|wrong,5,,high,placeholder,Higher Degree,1580416709542,placeholder,83,female,English,Describe these results of <strong>Green Valley</strong> so as to make it appear as if there is a <strong>high</strong> success rate without lying.,some|some|right,3|3|3|3|3,In this exam,of the students got,of the questions,.,11,"%{""instances"" => [%{""n_col"" => 12, ""rows"" => [3, 3, 3, 3, 3]}], ""number"" => 11, ""sequence"" => [""CCCCC""], ""truth_table"" => []}",Thu Jan 30 2020 20:29:42 GMT+0000 (Greenwich Mean Time),1580416182800,1|1|1|0|0|0|0|0|0|0|0|0|1|1|1|0|0|0|0|0|0|0|0|0|1|1|1|0|0|0|0|0|0|0|0|0|1|1|1|0|0|0|0|0|0|0|0|0|1|1|1|0|0|0|0|0|0|0|0|0,8.77903333333333,main_trials,5
11745,,14727,55,all|most|some|none,all|most|some|none,right|wrong,5,,low,placeholder,Higher Degree,1580416709542,placeholder,83,female,English,Describe these results of <strong>Riverside</strong> so as to make it appear as if there is a <strong>low</strong> success rate without lying.,some|some|wrong,12|12|3|3|3,In this exam,of the students got,of the questions,.,13,"%{""instances"" => [%{""n_col"" => 12, ""rows"" => [12, 12, 3, 3, 3]}], ""number"" => 13, ""sequence"" => [""ACCCC"", ""AACCC"", ""ABCCC""], ""truth_table"" => []}",Thu Jan 30 2020 20:29:42 GMT+0000 (Greenwich Mean Time),1580416182800,1|1|1|1|1|1|1|1|1|1|1|1|1|1|1|1|1|1|1|1|1|1|1|1|1|1|1|0|0|0|0|0|0|0|0|0|1|1|1|0|0|0|0|0|0|0|0|0|1|1|1|0|0|0|0|0|0|0|0|0,8.77903333333333,main_trials,6
11745,,13771,55,all|most|some|none,all|most|some|none,right|wrong,5,,high,placeholder,Higher Degree,1580416709542,placeholder,83,female,English,Describe these results of <strong>Green Valley</strong> so as to make it appear as if there is a <strong>high</strong> success rate without lying.,some|most|right,9|9|9|0|0,In this exam,of the students got,of the questions,.,7,"%{""instances"" => [%{""n_col"" => 12, ""rows"" => [9, 9, 9, 0, 0]}], ""number"" => 7, ""sequence"" => [""BBBDD"", ""BBBBD"", ""BBBCD""], ""truth_table"" => []}",Thu Jan 30 2020 20:29:42 GMT+0000 (Greenwich Mean Time),1580416182800,1|1|1|1|1|1|1|1|1|0|0|0|1|1|1|1|1|1|1|1|1|0|0|0|1|1|1|1|1|1|1|1|1|0|0|0|0|0|0|0|0|0|0|0|0|0|0|0|0|0|0|0|0|0|0|0|0|0|0|0,8.77903333333333,main_trials,7
11745,,12186,55,all|most|some|none,all|most|some|none,right|wrong,5,,high,placeholder,Higher Degree,1580416709542,placeholder,83,female,English,Describe these results of <strong>Green Valley</strong> so as to make it appear as if there is a <strong>high</strong> success rate without lying.,most|all|right,12|12|12|0|0,In this exam,of the students got,of the questions,.,9,"%{""instances"" => [%{""n_col"" => 12, ""rows"" => [12, 12, 12, 0, 0]}], ""number"" => 9, ""sequence"" => [""AAADD"", ""AAAAD"", ""AAABD"", ""AAACD""], ""truth_table"" => []}",Thu Jan 30 2020 20:29:42 GMT+0000 (Greenwich Mean Time),1580416182800,1|1|1|1|1|1|1|1|1|1|1|1|1|1|1|1|1|1|1|1|1|1|1|1|1|1|1|1|1|1|1|1|1|1|1|1|0|0|0|0|0|0|0|0|0|0|0|0|0|0|0|0|0|0|0|0|0|0|0|0,8.77903333333333,main_trials,8
11745,,13304,55,all|most|some|none,all|most|some|none,right|wrong,5,,high,placeholder,Higher Degree,1580416709542,placeholder,83,female,English,Describe these results of <strong>Green Valley</strong> so as to make it appear as if there is a <strong>high</strong> success rate without lying.,most|all|right,12|12|12|9|9,In this exam,of the students got,of the questions,.,19,"%{""instances"" => [%{""n_col"" => 12, ""rows"" => '\f\f\f\t\t'}], ""number"" => 19, ""sequence"" => [""AAABB"", ""AAAAB""], ""truth_table"" => []}",Thu Jan 30 2020 20:29:42 GMT+0000 (Greenwich Mean Time),1580416182800,1|1|1|1|1|1|1|1|1|1|1|1|1|1|1|1|1|1|1|1|1|1|1|1|1|1|1|1|1|1|1|1|1|1|1|1|1|1|1|1|1|1|1|1|1|0|0|0|1|1|1|1|1|1|1|1|1|0|0|0,8.77903333333333,main_trials,9
11745,,10297,55,all|most|some|none,all|most|some|none,right|wrong,5,,high,placeholder,Higher Degree,1580416709542,placeholder,83,female,English,Describe these results of <strong>Green Valley</strong> so as to make it appear as if there is a <strong>high</strong> success rate without lying.,some|all|right,9|9|3|3|3,In this exam,of the students got,of the questions,.,12,"%{""instances"" => [%{""n_col"" => 12, ""rows"" => [9, 9, 3, 3, 3]}], ""number"" => 12, ""sequence"" => [""BCCCC"", ""BBCCC""], ""truth_table"" => []}",Thu Jan 30 2020 20:29:42 GMT+0000 (Greenwich Mean Time),1580416182800,1|1|1|1|1|1|1|1|1|0|0|0|1|1|1|1|1|1|1|1|1|0|0|0|1|1|1|0|0|0|0|0|0|0|0|0|1|1|1|0|0|0|0|0|0|0|0|0|1|1|1|0|0|0|0|0|0|0|0|0,8.77903333333333,main_trials,10
11745,,11632,55,all|most|some|none,all|most|some|none,right|wrong,5,,low,placeholder,Higher Degree,1580416709542,placeholder,83,female,English,Describe these results of <strong>Riverside</strong> so as to make it appear as if there is a <strong>low</strong> success rate without lying.,some|some|wrong,12|12|12|3|3,In this exam,of the students got,of the questions,.,16,"%{""instances"" => [%{""n_col"" => 12, ""rows"" => [12, 12, 12, 3, 3]}], ""number"" => 16, ""sequence"" => [""AAACC"", ""AAAAC"", ""AAABC""], ""truth_table"" => []}",Thu Jan 30 2020 20:29:42 GMT+0000 (Greenwich Mean Time),1580416182800,1|1|1|1|1|1|1|1|1|1|1|1|1|1|1|1|1|1|1|1|1|1|1|1|1|1|1|1|1|1|1|1|1|1|1|1|1|1|1|0|0|0|0|0|0|0|0|0|1|1|1|0|0|0|0|0|0|0|0|0,8.77903333333333,main_trials,11
11745,,7907,55,all|most|some|none,all|most|some|none,right|wrong,5,,high,placeholder,Higher Degree,1580416709542,placeholder,83,female,English,Describe these results of <strong>Green Valley</strong> so as to make it appear as if there is a <strong>high</strong> success rate without lying.,all|all|right,12|12|12|12|12,In this exam,of the students got,of the questions,.,20,"%{""instances"" => [%{""n_col"" => 12, ""rows"" => '\f\f\f\f\f'}], ""number"" => 20, ""sequence"" => [""AAAAA""], ""truth_table"" => []}",Thu Jan 30 2020 20:29:42 GMT+0000 (Greenwich Mean Time),1580416182800,1|1|1|1|1|1|1|1|1|1|1|1|1|1|1|1|1|1|1|1|1|1|1|1|1|1|1|1|1|1|1|1|1|1|1|1|1|1|1|1|1|1|1|1|1|1|1|1|1|1|1|1|1|1|1|1|1|1|1|1,8.77903333333333,main_trials,12
11745,,7662,55,all|most|some|none,all|most|some|none,right|wrong,5,,low,placeholder,Higher Degree,1580416709542,placeholder,83,female,English,Describe these results of <strong>Riverside</strong> so as to make it appear as if there is a <strong>low</strong> success rate without lying.,none|none|right,0|0|0|0|0,In this exam,of the students got,of the questions,.,10,"%{""instances"" => [%{""n_col"" => 12, ""rows"" => [0, 0, 0, 0, 0]}], ""number"" => 10, ""sequence"" => [""DDDDD""], ""truth_table"" => []}",Thu Jan 30 2020 20:29:42 GMT+0000 (Greenwich Mean Time),1580416182800,0|0|0|0|0|0|0|0|0|0|0|0|0|0|0|0|0|0|0|0|0|0|0|0|0|0|0|0|0|0|0|0|0|0|0|0|0|0|0|0|0|0|0|0|0|0|0|0|0|0|0|0|0|0|0|0|0|0|0|0,8.77903333333333,main_trials,13
11745,,10905,55,all|most|some|none,all|most|some|none,right|wrong,5,,low,placeholder,Higher Degree,1580416709542,placeholder,83,female,English,Describe these results of <strong>Riverside</strong> so as to make it appear as if there is a <strong>low</strong> success rate without lying.,most|some|right,9|9|9|3|3,In this exam,of the students got,of the questions,.,14,"%{""instances"" => [%{""n_col"" => 12, ""rows"" => [9, 9, 9, 3, 3]}], ""number"" => 14, ""sequence"" => [""BBBCC"", ""BBBBC""], ""truth_table"" => []}",Thu Jan 30 2020 20:29:42 GMT+0000 (Greenwich Mean Time),1580416182800,1|1|1|1|1|1|1|1|1|0|0|0|1|1|1|1|1|1|1|1|1|0|0|0|1|1|1|1|1|1|1|1|1|0|0|0|1|1|1|0|0|0|0|0|0|0|0|0|1|1|1|0|0|0|0|0|0|0|0|0,8.77903333333333,main_trials,14
11745,,10856,55,all|most|some|none,all|most|some|none,right|wrong,5,,high,placeholder,Higher Degree,1580416709542,placeholder,83,female,English,Describe these results of <strong>Green Valley</strong> so as to make it appear as if there is a <strong>high</strong> success rate without lying.,some|all|right,9|9|0|0|0,In this exam,of the students got,of the questions,.,3,"%{""instances"" => [%{""n_col"" => 12, ""rows"" => [9, 9, 0, 0, 0]}], ""number"" => 3, ""sequence"" => [""BDDDD"", ""BBDDD"", ""BCDDD""], ""truth_table"" => []}",Thu Jan 30 2020 20:29:42 GMT+0000 (Greenwich Mean Time),1580416182800,1|1|1|1|1|1|1|1|1|0|0|0|1|1|1|1|1|1|1|1|1|0|0|0|0|0|0|0|0|0|0|0|0|0|0|0|0|0|0|0|0|0|0|0|0|0|0|0|0|0|0|0|0|0|0|0|0|0|0|0,8.77903333333333,main_trials,15
11745,,14972,55,all|most|some|none,all|most|some|none,right|wrong,5,,high,placeholder,Higher Degree,1580416709542,placeholder,83,female,English,Describe these results of <strong>Green Valley</strong> so as to make it appear as if there is a <strong>high</strong> success rate without lying.,some|all|right,12|12|0|0|0,In this exam,of the students got,of the questions,.,4,"%{""instances"" => [%{""n_col"" => 12, ""rows"" => [12, 12, 0, 0, 0]}], ""number"" => 4, ""sequence"" => [""ADDDD"", ""AADDD"", ""ABDDD"", ""ACDDD""], ""truth_table"" => []}",Thu Jan 30 2020 20:29:42 GMT+0000 (Greenwich Mean Time),1580416182800,1|1|1|1|1|1|1|1|1|1|1|1|1|1|1|1|1|1|1|1|1|1|1|1|0|0|0|0|0|0|0|0|0|0|0|0|0|0|0|0|0|0|0|0|0|0|0|0|0|0|0|0|0|0|0|0|0|0|0|0,8.77903333333333,main_trials,16
11745,,10024,55,all|most|some|none,all|most|some|none,right|wrong,5,,low,placeholder,Higher Degree,1580416709542,placeholder,83,female,English,Describe these results of <strong>Riverside</strong> so as to make it appear as if there is a <strong>low</strong> success rate without lying.,some|some|wrong,12|12|9|9|9,In this exam,of the students got,of the questions,.,18,"%{""instances"" => [%{""n_col"" => 12, ""rows"" => '\f\f\t\t\t'}], ""number"" => 18, ""sequence"" => [""ABBBB"", ""AABBB""], ""truth_table"" => []}",Thu Jan 30 2020 20:29:42 GMT+0000 (Greenwich Mean Time),1580416182800,1|1|1|1|1|1|1|1|1|1|1|1|1|1|1|1|1|1|1|1|1|1|1|1|1|1|1|1|1|1|1|1|1|0|0|0|1|1|1|1|1|1|1|1|1|0|0|0|1|1|1|1|1|1|1|1|1|0|0|0,8.77903333333333,main_trials,17
11745,,21126,55,all|most|some|none,all|most|some|none,right|wrong,5,,low,placeholder,Higher Degree,1580416709542,placeholder,83,female,English,Describe these results of <strong>Riverside</strong> so as to make it appear as if there is a <strong>low</strong> success rate without lying.,most|most|wrong,3|3|0|0|0,In this exam,of the students got,of the questions,.,2,"%{""instances"" => [%{""n_col"" => 12, ""rows"" => [3, 3, 0, 0, 0]}], ""number"" => 2, ""sequence"" => [""CDDDD"", ""CCDDD""], ""truth_table"" => []}",Thu Jan 30 2020 20:29:42 GMT+0000 (Greenwich Mean Time),1580416182800,1|1|1|0|0|0|0|0|0|0|0|0|1|1|1|0|0|0|0|0|0|0|0|0|0|0|0|0|0|0|0|0|0|0|0|0|0|0|0|0|0|0|0|0|0|0|0|0|0|0|0|0|0|0|0|0|0|0|0|0,8.77903333333333,main_trials,18
11745,,10280,55,all|most|some|none,all|most|some|none,right|wrong,5,,low,placeholder,Higher Degree,1580416709542,placeholder,83,female,English,Describe these results of <strong>Riverside</strong> so as to make it appear as if there is a <strong>low</strong> success rate without lying.,most|most|right,3|3|3|0|0,In this exam,of the students got,of the questions,.,5,"%{""instances"" => [%{""n_col"" => 12, ""rows"" => [3, 3, 3, 0, 0]}], ""number"" => 5, ""sequence"" => [""CCCDD"", ""CCCCD""], ""truth_table"" => []}",Thu Jan 30 2020 20:29:42 GMT+0000 (Greenwich Mean Time),1580416182800,1|1|1|0|0|0|0|0|0|0|0|0|1|1|1|0|0|0|0|0|0|0|0|0|1|1|1|0|0|0|0|0|0|0|0|0|0|0|0|0|0|0|0|0|0|0|0|0|0|0|0|0|0|0|0|0|0|0|0|0,8.77903333333333,main_trials,19
11745,,10944,55,all|most|some|none,all|most|some|none,right|wrong,5,,low,placeholder,Higher Degree,1580416709542,placeholder,83,female,English,Describe these results of <strong>Riverside</strong> so as to make it appear as if there is a <strong>low</strong> success rate without lying.,some|some|right,9|9|3|0|0,In this exam,of the students got,of the questions,.,6,"%{""instances"" => [%{""n_col"" => 12, ""rows"" => [9, 9, 3, 0, 0]}], ""number"" => 6, ""sequence"" => [""BCCCD"", ""BCCDD"", ""BBCDD"", ""BBCCD""], ""truth_table"" => []}",Thu Jan 30 2020 20:29:42 GMT+0000 (Greenwich Mean Time),1580416182800,1|1|1|1|1|1|1|1|1|0|0|0|1|1|1|1|1|1|1|1|1|0|0|0|1|1|1|0|0|0|0|0|0|0|0|0|0|0|0|0|0|0|0|0|0|0|0|0|0|0|0|0|0|0|0|0|0|0|0|0,8.77903333333333,main_trials,20
11752,,39170,39,all|most|some|none,all|most|some|none,right|wrong,5,,low,placeholder,Graduated High School,1580416994543,placeholder,83,female,english,Describe these results of <strong>Riverside</strong> so as to make it appear as if there is a <strong>low</strong> success rate without lying.,some|some|wrong,9|9|3|3|3,In this exam,of the students got,of the questions,.,12,"%{""instances"" => [%{""n_col"" => 12, ""rows"" => [9, 9, 3, 3, 3]}], ""number"" => 12, ""sequence"" => [""BCCCC"", ""BBCCC""], ""truth_table"" => []}",Thu Jan 30 2020 20:33:53 GMT+0000 (GMT Standard Time),1580416433166,1|1|1|1|1|1|1|1|1|0|0|0|1|1|1|1|1|1|1|1|1|0|0|0|1|1|1|0|0|0|0|0|0|0|0|0|1|1|1|0|0|0|0|0|0|0|0|0|1|1|1|0|0|0|0|0|0|0|0|0,9.35628333333333,training_trials,1
11752,,18059,39,all|most|some|none,all|most|some|none,right|wrong,5,,high,placeholder,Graduated High School,1580416994543,placeholder,83,female,english,Describe these results of <strong>Green Valley</strong> so as to make it appear as if there is a <strong>high</strong> success rate without lying.,most|most|right,9|9|3|3|3,In this exam,of the students got,of the questions,.,12,"%{""instances"" => [%{""n_col"" => 12, ""rows"" => [9, 9, 3, 3, 3]}], ""number"" => 12, ""sequence"" => [""BCCCC"", ""BBCCC""], ""truth_table"" => []}",Thu Jan 30 2020 20:33:53 GMT+0000 (GMT Standard Time),1580416433166,1|1|1|1|1|1|1|1|1|0|0|0|1|1|1|1|1|1|1|1|1|0|0|0|1|1|1|0|0|0|0|0|0|0|0|0|1|1|1|0|0|0|0|0|0|0|0|0|1|1|1|0|0|0|0|0|0|0|0|0,9.35628333333333,training_trials,2
11752,,17883,39,all|most|some|none,all|most|some|none,right|wrong,5,,high,placeholder,Graduated High School,1580416994543,placeholder,83,female,english,Describe these results of <strong>Green Valley</strong> so as to make it appear as if there is a <strong>high</strong> success rate without lying.,some|all|right,12|12|0|0|0,In this exam,of the students got,of the questions,.,4,"%{""instances"" => [%{""n_col"" => 12, ""rows"" => [12, 12, 0, 0, 0]}], ""number"" => 4, ""sequence"" => [""ADDDD"", ""AADDD"", ""ABDDD"", ""ACDDD""], ""truth_table"" => []}",Thu Jan 30 2020 20:33:53 GMT+0000 (GMT Standard Time),1580416433166,1|1|1|1|1|1|1|1|1|1|1|1|1|1|1|1|1|1|1|1|1|1|1|1|0|0|0|0|0|0|0|0|0|0|0|0|0|0|0|0|0|0|0|0|0|0|0|0|0|0|0|0|0|0|0|0|0|0|0|0,9.35628333333333,training_trials,3
11752,,17535,39,all|most|some|none,all|most|some|none,right|wrong,5,,low,placeholder,Graduated High School,1580416994543,placeholder,83,female,english,Describe these results of <strong>Riverside</strong> so as to make it appear as if there is a <strong>low</strong> success rate without lying.,most|most|wrong,12|12|0|0|0,In this exam,of the students got,of the questions,.,4,"%{""instances"" => [%{""n_col"" => 12, ""rows"" => [12, 12, 0, 0, 0]}], ""number"" => 4, ""sequence"" => [""ADDDD"", ""AADDD"", ""ABDDD"", ""ACDDD""], ""truth_table"" => []}",Thu Jan 30 2020 20:33:53 GMT+0000 (GMT Standard Time),1580416433166,1|1|1|1|1|1|1|1|1|1|1|1|1|1|1|1|1|1|1|1|1|1|1|1|0|0|0|0|0|0|0|0|0|0|0|0|0|0|0|0|0|0|0|0|0|0|0|0|0|0|0|0|0|0|0|0|0|0|0|0,9.35628333333333,training_trials,4
11752,,13843,39,all|most|some|none,all|most|some|none,right|wrong,5,,high,placeholder,Graduated High School,1580416994543,placeholder,83,female,english,Describe these results of <strong>Green Valley</strong> so as to make it appear as if there is a <strong>high</strong> success rate without lying.,all|all|right,12|12|12|12|12,In this exam,of the students got,of the questions,.,20,"%{""instances"" => [%{""n_col"" => 12, ""rows"" => '\f\f\f\f\f'}], ""number"" => 20, ""sequence"" => [""AAAAA""], ""truth_table"" => []}",Thu Jan 30 2020 20:33:53 GMT+0000 (GMT Standard Time),1580416433166,1|1|1|1|1|1|1|1|1|1|1|1|1|1|1|1|1|1|1|1|1|1|1|1|1|1|1|1|1|1|1|1|1|1|1|1|1|1|1|1|1|1|1|1|1|1|1|1|1|1|1|1|1|1|1|1|1|1|1|1,9.35628333333333,main_trials,1
11752,,9633,39,all|most|some|none,all|most|some|none,right|wrong,5,,high,placeholder,Graduated High School,1580416994543,placeholder,83,female,english,Describe these results of <strong>Green Valley</strong> so as to make it appear as if there is a <strong>high</strong> success rate without lying.,most|all|right,12|12|12|0|0,In this exam,of the students got,of the questions,.,9,"%{""instances"" => [%{""n_col"" => 12, ""rows"" => [12, 12, 12, 0, 0]}], ""number"" => 9, ""sequence"" => [""AAADD"", ""AAAAD"", ""AAABD"", ""AAACD""], ""truth_table"" => []}",Thu Jan 30 2020 20:33:53 GMT+0000 (GMT Standard Time),1580416433166,1|1|1|1|1|1|1|1|1|1|1|1|1|1|1|1|1|1|1|1|1|1|1|1|1|1|1|1|1|1|1|1|1|1|1|1|0|0|0|0|0|0|0|0|0|0|0|0|0|0|0|0|0|0|0|0|0|0|0|0,9.35628333333333,main_trials,2
11752,,14572,39,all|most|some|none,all|most|some|none,right|wrong,5,,low,placeholder,Graduated High School,1580416994543,placeholder,83,female,english,Describe these results of <strong>Riverside</strong> so as to make it appear as if there is a <strong>low</strong> success rate without lying.,most|all|wrong,12|12|0|0|0,In this exam,of the students got,of the questions,.,4,"%{""instances"" => [%{""n_col"" => 12, ""rows"" => [12, 12, 0, 0, 0]}], ""number"" => 4, ""sequence"" => [""ADDDD"", ""AADDD"", ""ABDDD"", ""ACDDD""], ""truth_table"" => []}",Thu Jan 30 2020 20:33:53 GMT+0000 (GMT Standard Time),1580416433166,1|1|1|1|1|1|1|1|1|1|1|1|1|1|1|1|1|1|1|1|1|1|1|1|0|0|0|0|0|0|0|0|0|0|0|0|0|0|0|0|0|0|0|0|0|0|0|0|0|0|0|0|0|0|0|0|0|0|0|0,9.35628333333333,main_trials,3
11752,,25088,39,all|most|some|none,all|most|some|none,right|wrong,5,,low,placeholder,Graduated High School,1580416994543,placeholder,83,female,english,Describe these results of <strong>Riverside</strong> so as to make it appear as if there is a <strong>low</strong> success rate without lying.,all|some|wrong,9|9|9|3|3,In this exam,of the students got,of the questions,.,14,"%{""instances"" => [%{""n_col"" => 12, ""rows"" => [9, 9, 9, 3, 3]}], ""number"" => 14, ""sequence"" => [""BBBCC"", ""BBBBC""], ""truth_table"" => []}",Thu Jan 30 2020 20:33:53 GMT+0000 (GMT Standard Time),1580416433166,1|1|1|1|1|1|1|1|1|0|0|0|1|1|1|1|1|1|1|1|1|0|0|0|1|1|1|1|1|1|1|1|1|0|0|0|1|1|1|0|0|0|0|0|0|0|0|0|1|1|1|0|0|0|0|0|0|0|0|0,9.35628333333333,main_trials,4
11752,,13895,39,all|most|some|none,all|most|some|none,right|wrong,5,,low,placeholder,Graduated High School,1580416994543,placeholder,83,female,english,Describe these results of <strong>Riverside</strong> so as to make it appear as if there is a <strong>low</strong> success rate without lying.,all|some|wrong,9|9|9|9|9,In this exam,of the students got,of the questions,.,17,"%{""instances"" => [%{""n_col"" => 12, ""rows"" => '\t\t\t\t\t'}], ""number"" => 17, ""sequence"" => [""BBBBB""], ""truth_table"" => []}",Thu Jan 30 2020 20:33:53 GMT+0000 (GMT Standard Time),1580416433166,1|1|1|1|1|1|1|1|1|0|0|0|1|1|1|1|1|1|1|1|1|0|0|0|1|1|1|1|1|1|1|1|1|0|0|0|1|1|1|1|1|1|1|1|1|0|0|0|1|1|1|1|1|1|1|1|1|0|0|0,9.35628333333333,main_trials,5
11752,,12392,39,all|most|some|none,all|most|some|none,right|wrong,5,,low,placeholder,Graduated High School,1580416994543,placeholder,83,female,english,Describe these results of <strong>Riverside</strong> so as to make it appear as if there is a <strong>low</strong> success rate without lying.,all|some|wrong,9|9|3|3|3,In this exam,of the students got,of the questions,.,12,"%{""instances"" => [%{""n_col"" => 12, ""rows"" => [9, 9, 3, 3, 3]}], ""number"" => 12, ""sequence"" => [""BCCCC"", ""BBCCC""], ""truth_table"" => []}",Thu Jan 30 2020 20:33:53 GMT+0000 (GMT Standard Time),1580416433166,1|1|1|1|1|1|1|1|1|0|0|0|1|1|1|1|1|1|1|1|1|0|0|0|1|1|1|0|0|0|0|0|0|0|0|0|1|1|1|0|0|0|0|0|0|0|0|0|1|1|1|0|0|0|0|0|0|0|0|0,9.35628333333333,main_trials,6
11752,,11556,39,all|most|some|none,all|most|some|none,right|wrong,5,,low,placeholder,Graduated High School,1580416994543,placeholder,83,female,english,Describe these results of <strong>Riverside</strong> so as to make it appear as if there is a <strong>low</strong> success rate without lying.,some|all|wrong,12|12|9|0|0,In this exam,of the students got,of the questions,.,8,"%{""instances"" => [%{""n_col"" => 12, ""rows"" => [12, 12, 9, 0, 0]}], ""number"" => 8, ""sequence"" => [""ABBBD"", ""ABBDD"", ""AABDD"", ""ABBBD"", ""ABBCD"", ""AABCD""], ""truth_table"" => []}",Thu Jan 30 2020 20:33:53 GMT+0000 (GMT Standard Time),1580416433166,1|1|1|1|1|1|1|1|1|1|1|1|1|1|1|1|1|1|1|1|1|1|1|1|1|1|1|1|1|1|1|1|1|0|0|0|0|0|0|0|0|0|0|0|0|0|0|0|0|0|0|0|0|0|0|0|0|0|0|0,9.35628333333333,main_trials,7
11752,,19084,39,all|most|some|none,all|most|some|none,right|wrong,5,,high,placeholder,Graduated High School,1580416994543,placeholder,83,female,english,Describe these results of <strong>Green Valley</strong> so as to make it appear as if there is a <strong>high</strong> success rate without lying.,some|some|right,3|3|0|0|0,In this exam,of the students got,of the questions,.,2,"%{""instances"" => [%{""n_col"" => 12, ""rows"" => [3, 3, 0, 0, 0]}], ""number"" => 2, ""sequence"" => [""CDDDD"", ""CCDDD""], ""truth_table"" => []}",Thu Jan 30 2020 20:33:53 GMT+0000 (GMT Standard Time),1580416433166,1|1|1|0|0|0|0|0|0|0|0|0|1|1|1|0|0|0|0|0|0|0|0|0|0|0|0|0|0|0|0|0|0|0|0|0|0|0|0|0|0|0|0|0|0|0|0|0|0|0|0|0|0|0|0|0|0|0|0|0,9.35628333333333,main_trials,8
11752,,11900,39,all|most|some|none,all|most|some|none,right|wrong,5,,high,placeholder,Graduated High School,1580416994543,placeholder,83,female,english,Describe these results of <strong>Green Valley</strong> so as to make it appear as if there is a <strong>high</strong> success rate without lying.,all|some|right,3|3|3|3|3,In this exam,of the students got,of the questions,.,11,"%{""instances"" => [%{""n_col"" => 12, ""rows"" => [3, 3, 3, 3, 3]}], ""number"" => 11, ""sequence"" => [""CCCCC""], ""truth_table"" => []}",Thu Jan 30 2020 20:33:53 GMT+0000 (GMT Standard Time),1580416433166,1|1|1|0|0|0|0|0|0|0|0|0|1|1|1|0|0|0|0|0|0|0|0|0|1|1|1|0|0|0|0|0|0|0|0|0|1|1|1|0|0|0|0|0|0|0|0|0|1|1|1|0|0|0|0|0|0|0|0|0,9.35628333333333,main_trials,9
11752,,14662,39,all|most|some|none,all|most|some|none,right|wrong,5,,low,placeholder,Graduated High School,1580416994543,placeholder,83,female,english,Describe these results of <strong>Riverside</strong> so as to make it appear as if there is a <strong>low</strong> success rate without lying.,all|all|wrong,0|0|0|0|0,In this exam,of the students got,of the questions,.,10,"%{""instances"" => [%{""n_col"" => 12, ""rows"" => [0, 0, 0, 0, 0]}], ""number"" => 10, ""sequence"" => [""DDDDD""], ""truth_table"" => []}",Thu Jan 30 2020 20:33:53 GMT+0000 (GMT Standard Time),1580416433166,0|0|0|0|0|0|0|0|0|0|0|0|0|0|0|0|0|0|0|0|0|0|0|0|0|0|0|0|0|0|0|0|0|0|0|0|0|0|0|0|0|0|0|0|0|0|0|0|0|0|0|0|0|0|0|0|0|0|0|0,9.35628333333333,main_trials,10
11752,,11900,39,all|most|some|none,all|most|some|none,right|wrong,5,,low,placeholder,Graduated High School,1580416994543,placeholder,83,female,english,Describe these results of <strong>Riverside</strong> so as to make it appear as if there is a <strong>low</strong> success rate without lying.,all|most|wrong,9|9|0|0|0,In this exam,of the students got,of the questions,.,3,"%{""instances"" => [%{""n_col"" => 12, ""rows"" => [9, 9, 0, 0, 0]}], ""number"" => 3, ""sequence"" => [""BDDDD"", ""BBDDD"", ""BCDDD""], ""truth_table"" => []}",Thu Jan 30 2020 20:33:53 GMT+0000 (GMT Standard Time),1580416433166,1|1|1|1|1|1|1|1|1|0|0|0|1|1|1|1|1|1|1|1|1|0|0|0|0|0|0|0|0|0|0|0|0|0|0|0|0|0|0|0|0|0|0|0|0|0|0|0|0|0|0|0|0|0|0|0|0|0|0|0,9.35628333333333,main_trials,11
11752,,12988,39,all|most|some|none,all|most|some|none,right|wrong,5,,low,placeholder,Graduated High School,1580416994543,placeholder,83,female,english,Describe these results of <strong>Riverside</strong> so as to make it appear as if there is a <strong>low</strong> success rate without lying.,all|most|wrong,9|9|9|0|0,In this exam,of the students got,of the questions,.,7,"%{""instances"" => [%{""n_col"" => 12, ""rows"" => [9, 9, 9, 0, 0]}], ""number"" => 7, ""sequence"" => [""BBBDD"", ""BBBBD"", ""BBBCD""], ""truth_table"" => []}",Thu Jan 30 2020 20:33:53 GMT+0000 (GMT Standard Time),1580416433166,1|1|1|1|1|1|1|1|1|0|0|0|1|1|1|1|1|1|1|1|1|0|0|0|1|1|1|1|1|1|1|1|1|0|0|0|0|0|0|0|0|0|0|0|0|0|0|0|0|0|0|0|0|0|0|0|0|0|0|0,9.35628333333333,main_trials,12
11752,,27219,39,all|most|some|none,all|most|some|none,right|wrong,5,,high,placeholder,Graduated High School,1580416994543,placeholder,83,female,english,Describe these results of <strong>Green Valley</strong> so as to make it appear as if there is a <strong>high</strong> success rate without lying.,all|most|right,12|12|9|3|3,In this exam,of the students got,of the questions,.,15,"%{""instances"" => [%{""n_col"" => 12, ""rows"" => [12, 12, 9, 3, 3]}], ""number"" => 15, ""sequence"" => [""ABBBC"", ""ABBCC"", ""AABCC"", ""AABBC""], ""truth_table"" => []}",Thu Jan 30 2020 20:33:53 GMT+0000 (GMT Standard Time),1580416433166,1|1|1|1|1|1|1|1|1|1|1|1|1|1|1|1|1|1|1|1|1|1|1|1|1|1|1|1|1|1|1|1|1|0|0|0|1|1|1|0|0|0|0|0|0|0|0|0|1|1|1|0|0|0|0|0|0|0|0|0,9.35628333333333,main_trials,13
11752,,22889,39,all|most|some|none,all|most|some|none,right|wrong,5,,high,placeholder,Graduated High School,1580416994543,placeholder,83,female,english,Describe these results of <strong>Green Valley</strong> so as to make it appear as if there is a <strong>high</strong> success rate without lying.,some|some|wrong,3|3|3|0|0,In this exam,of the students got,of the questions,.,5,"%{""instances"" => [%{""n_col"" => 12, ""rows"" => [3, 3, 3, 0, 0]}], ""number"" => 5, ""sequence"" => [""CCCDD"", ""CCCCD""], ""truth_table"" => []}",Thu Jan 30 2020 20:33:53 GMT+0000 (GMT Standard Time),1580416433166,1|1|1|0|0|0|0|0|0|0|0|0|1|1|1|0|0|0|0|0|0|0|0|0|1|1|1|0|0|0|0|0|0|0|0|0|0|0|0|0|0|0|0|0|0|0|0|0|0|0|0|0|0|0|0|0|0|0|0|0,9.35628333333333,main_trials,14
11752,,11120,39,all|most|some|none,all|most|some|none,right|wrong,5,,high,placeholder,Graduated High School,1580416994543,placeholder,83,female,english,Describe these results of <strong>Green Valley</strong> so as to make it appear as if there is a <strong>high</strong> success rate without lying.,most|all|right,12|12|3|0|0,In this exam,of the students got,of the questions,.,1,"%{""instances"" => [%{""n_col"" => 12, ""rows"" => [12, 12, 3, 0, 0]}], ""number"" => 1, ""sequence"" => [""ACCCD"", ""ACCDD"", ""AACDD"", ""AACCD"", ""ABCDD"", ""ABCCD""], ""truth_table"" => []}",Thu Jan 30 2020 20:33:53 GMT+0000 (GMT Standard Time),1580416433166,1|1|1|1|1|1|1|1|1|1|1|1|1|1|1|1|1|1|1|1|1|1|1|1|1|1|1|0|0|0|0|0|0|0|0|0|0|0|0|0|0|0|0|0|0|0|0|0|0|0|0|0|0|0|0|0|0|0|0|0,9.35628333333333,main_trials,15
11752,,15361,39,all|most|some|none,all|most|some|none,right|wrong,5,,low,placeholder,Graduated High School,1580416994543,placeholder,83,female,english,Describe these results of <strong>Riverside</strong> so as to make it appear as if there is a <strong>low</strong> success rate without lying.,most|most|wrong,12|12|3|3|3,In this exam,of the students got,of the questions,.,13,"%{""instances"" => [%{""n_col"" => 12, ""rows"" => [12, 12, 3, 3, 3]}], ""number"" => 13, ""sequence"" => [""ACCCC"", ""AACCC"", ""ABCCC""], ""truth_table"" => []}",Thu Jan 30 2020 20:33:53 GMT+0000 (GMT Standard Time),1580416433166,1|1|1|1|1|1|1|1|1|1|1|1|1|1|1|1|1|1|1|1|1|1|1|1|1|1|1|0|0|0|0|0|0|0|0|0|1|1|1|0|0|0|0|0|0|0|0|0|1|1|1|0|0|0|0|0|0|0|0|0,9.35628333333333,main_trials,16
11752,,15449,39,all|most|some|none,all|most|some|none,right|wrong,5,,low,placeholder,Graduated High School,1580416994543,placeholder,83,female,english,Describe these results of <strong>Riverside</strong> so as to make it appear as if there is a <strong>low</strong> success rate without lying.,some|some|right,12|12|9|9|9,In this exam,of the students got,of the questions,.,18,"%{""instances"" => [%{""n_col"" => 12, ""rows"" => '\f\f\t\t\t'}], ""number"" => 18, ""sequence"" => [""ABBBB"", ""AABBB""], ""truth_table"" => []}",Thu Jan 30 2020 20:33:53 GMT+0000 (GMT Standard Time),1580416433166,1|1|1|1|1|1|1|1|1|1|1|1|1|1|1|1|1|1|1|1|1|1|1|1|1|1|1|1|1|1|1|1|1|0|0|0|1|1|1|1|1|1|1|1|1|0|0|0|1|1|1|1|1|1|1|1|1|0|0|0,9.35628333333333,main_trials,17
11752,,8363,39,all|most|some|none,all|most|some|none,right|wrong,5,,high,placeholder,Graduated High School,1580416994543,placeholder,83,female,english,Describe these results of <strong>Green Valley</strong> so as to make it appear as if there is a <strong>high</strong> success rate without lying.,most|all|right,12|12|12|3|3,In this exam,of the students got,of the questions,.,16,"%{""instances"" => [%{""n_col"" => 12, ""rows"" => [12, 12, 12, 3, 3]}], ""number"" => 16, ""sequence"" => [""AAACC"", ""AAAAC"", ""AAABC""], ""truth_table"" => []}",Thu Jan 30 2020 20:33:53 GMT+0000 (GMT Standard Time),1580416433166,1|1|1|1|1|1|1|1|1|1|1|1|1|1|1|1|1|1|1|1|1|1|1|1|1|1|1|1|1|1|1|1|1|1|1|1|1|1|1|0|0|0|0|0|0|0|0|0|1|1|1|0|0|0|0|0|0|0|0|0,9.35628333333333,main_trials,18
11752,,15717,39,all|most|some|none,all|most|some|none,right|wrong,5,,high,placeholder,Graduated High School,1580416994543,placeholder,83,female,english,Describe these results of <strong>Green Valley</strong> so as to make it appear as if there is a <strong>high</strong> success rate without lying.,most|some|right,9|9|3|0|0,In this exam,of the students got,of the questions,.,6,"%{""instances"" => [%{""n_col"" => 12, ""rows"" => [9, 9, 3, 0, 0]}], ""number"" => 6, ""sequence"" => [""BCCCD"", ""BCCDD"", ""BBCDD"", ""BBCCD""], ""truth_table"" => []}",Thu Jan 30 2020 20:33:53 GMT+0000 (GMT Standard Time),1580416433166,1|1|1|1|1|1|1|1|1|0|0|0|1|1|1|1|1|1|1|1|1|0|0|0|1|1|1|0|0|0|0|0|0|0|0|0|0|0|0|0|0|0|0|0|0|0|0|0|0|0|0|0|0|0|0|0|0|0|0|0,9.35628333333333,main_trials,19
11752,,7958,39,all|most|some|none,all|most|some|none,right|wrong,5,,high,placeholder,Graduated High School,1580416994543,placeholder,83,female,english,Describe these results of <strong>Green Valley</strong> so as to make it appear as if there is a <strong>high</strong> success rate without lying.,most|all|right,12|12|12|9|9,In this exam,of the students got,of the questions,.,19,"%{""instances"" => [%{""n_col"" => 12, ""rows"" => '\f\f\f\t\t'}], ""number"" => 19, ""sequence"" => [""AAABB"", ""AAAAB""], ""truth_table"" => []}",Thu Jan 30 2020 20:33:53 GMT+0000 (GMT Standard Time),1580416433166,1|1|1|1|1|1|1|1|1|1|1|1|1|1|1|1|1|1|1|1|1|1|1|1|1|1|1|1|1|1|1|1|1|1|1|1|1|1|1|1|1|1|1|1|1|0|0|0|1|1|1|1|1|1|1|1|1|0|0|0,9.35628333333333,main_trials,20
11757,,70118,55,all|most|some|none,all|most|some|none,right|wrong,5,,high,placeholder,,1580417205806,placeholder,83,female,English,Describe these results of <strong>Green Valley</strong> so as to make it appear as if there is a <strong>high</strong> success rate without lying.,some|all|right,12|12|0|0|0,In this exam,of the students got,of the questions,.,4,"%{""instances"" => [%{""n_col"" => 12, ""rows"" => [12, 12, 0, 0, 0]}], ""number"" => 4, ""sequence"" => [""ADDDD"", ""AADDD"", ""ABDDD"", ""ACDDD""], ""truth_table"" => []}",Thu Jan 30 2020 20:30:47 GMT+0000 (Greenwich Mean Time),1580416247984,1|1|1|1|1|1|1|1|1|1|1|1|1|1|1|1|1|1|1|1|1|1|1|1|0|0|0|0|0|0|0|0|0|0|0|0|0|0|0|0|0|0|0|0|0|0|0|0|0|0|0|0|0|0|0|0|0|0|0|0,15.9637,training_trials,1
11757,,33915,55,all|most|some|none,all|most|some|none,right|wrong,5,,high,placeholder,,1580417205806,placeholder,83,female,English,Describe these results of <strong>Green Valley</strong> so as to make it appear as if there is a <strong>high</strong> success rate without lying.,most|most|right,9|9|3|3|3,In this exam,of the students got,of the questions,.,12,"%{""instances"" => [%{""n_col"" => 12, ""rows"" => [9, 9, 3, 3, 3]}], ""number"" => 12, ""sequence"" => [""BCCCC"", ""BBCCC""], ""truth_table"" => []}",Thu Jan 30 2020 20:30:47 GMT+0000 (Greenwich Mean Time),1580416247984,1|1|1|1|1|1|1|1|1|0|0|0|1|1|1|1|1|1|1|1|1|0|0|0|1|1|1|0|0|0|0|0|0|0|0|0|1|1|1|0|0|0|0|0|0|0|0|0|1|1|1|0|0|0|0|0|0|0|0|0,15.9637,training_trials,2
11757,,28341,55,all|most|some|none,all|most|some|none,right|wrong,5,,low,placeholder,,1580417205806,placeholder,83,female,English,Describe these results of <strong>Riverside</strong> so as to make it appear as if there is a <strong>low</strong> success rate without lying.,some|most|wrong,12|12|0|0|0,In this exam,of the students got,of the questions,.,4,"%{""instances"" => [%{""n_col"" => 12, ""rows"" => [12, 12, 0, 0, 0]}], ""number"" => 4, ""sequence"" => [""ADDDD"", ""AADDD"", ""ABDDD"", ""ACDDD""], ""truth_table"" => []}",Thu Jan 30 2020 20:30:47 GMT+0000 (Greenwich Mean Time),1580416247984,1|1|1|1|1|1|1|1|1|1|1|1|1|1|1|1|1|1|1|1|1|1|1|1|0|0|0|0|0|0|0|0|0|0|0|0|0|0|0|0|0|0|0|0|0|0|0|0|0|0|0|0|0|0|0|0|0|0|0|0,15.9637,training_trials,3
11757,,20398,55,all|most|some|none,all|most|some|none,right|wrong,5,,low,placeholder,,1580417205806,placeholder,83,female,English,Describe these results of <strong>Riverside</strong> so as to make it appear as if there is a <strong>low</strong> success rate without lying.,some|most|wrong,9|9|3|3|3,In this exam,of the students got,of the questions,.,12,"%{""instances"" => [%{""n_col"" => 12, ""rows"" => [9, 9, 3, 3, 3]}], ""number"" => 12, ""sequence"" => [""BCCCC"", ""BBCCC""], ""truth_table"" => []}",Thu Jan 30 2020 20:30:47 GMT+0000 (Greenwich Mean Time),1580416247984,1|1|1|1|1|1|1|1|1|0|0|0|1|1|1|1|1|1|1|1|1|0|0|0|1|1|1|0|0|0|0|0|0|0|0|0|1|1|1|0|0|0|0|0|0|0|0|0|1|1|1|0|0|0|0|0|0|0|0|0,15.9637,training_trials,4
11757,,16220,55,all|most|some|none,all|most|some|none,right|wrong,5,,low,placeholder,,1580417205806,placeholder,83,female,English,Describe these results of <strong>Riverside</strong> so as to make it appear as if there is a <strong>low</strong> success rate without lying.,most|most|wrong,9|9|3|0|0,In this exam,of the students got,of the questions,.,6,"%{""instances"" => [%{""n_col"" => 12, ""rows"" => [9, 9, 3, 0, 0]}], ""number"" => 6, ""sequence"" => [""BCCCD"", ""BCCDD"", ""BBCDD"", ""BBCCD""], ""truth_table"" => []}",Thu Jan 30 2020 20:30:47 GMT+0000 (Greenwich Mean Time),1580416247984,1|1|1|1|1|1|1|1|1|0|0|0|1|1|1|1|1|1|1|1|1|0|0|0|1|1|1|0|0|0|0|0|0|0|0|0|0|0|0|0|0|0|0|0|0|0|0|0|0|0|0|0|0|0|0|0|0|0|0|0,15.9637,main_trials,1
11757,,35084,55,all|most|some|none,all|most|some|none,right|wrong,5,,high,placeholder,,1580417205806,placeholder,83,female,English,Describe these results of <strong>Green Valley</strong> so as to make it appear as if there is a <strong>high</strong> success rate without lying.,some|most|right,9|9|3|3|3,In this exam,of the students got,of the questions,.,12,"%{""instances"" => [%{""n_col"" => 12, ""rows"" => [9, 9, 3, 3, 3]}], ""number"" => 12, ""sequence"" => [""BCCCC"", ""BBCCC""], ""truth_table"" => []}",Thu Jan 30 2020 20:30:47 GMT+0000 (Greenwich Mean Time),1580416247984,1|1|1|1|1|1|1|1|1|0|0|0|1|1|1|1|1|1|1|1|1|0|0|0|1|1|1|0|0|0|0|0|0|0|0|0|1|1|1|0|0|0|0|0|0|0|0|0|1|1|1|0|0|0|0|0|0|0|0|0,15.9637,main_trials,2
11757,,27519,55,all|most|some|none,all|most|some|none,right|wrong,5,,low,placeholder,,1580417205806,placeholder,83,female,English,Describe these results of <strong>Riverside</strong> so as to make it appear as if there is a <strong>low</strong> success rate without lying.,some|some|right,12|12|9|9|9,In this exam,of the students got,of the questions,.,18,"%{""instances"" => [%{""n_col"" => 12, ""rows"" => '\f\f\t\t\t'}], ""number"" => 18, ""sequence"" => [""ABBBB"", ""AABBB""], ""truth_table"" => []}",Thu Jan 30 2020 20:30:47 GMT+0000 (Greenwich Mean Time),1580416247984,1|1|1|1|1|1|1|1|1|1|1|1|1|1|1|1|1|1|1|1|1|1|1|1|1|1|1|1|1|1|1|1|1|0|0|0|1|1|1|1|1|1|1|1|1|0|0|0|1|1|1|1|1|1|1|1|1|0|0|0,15.9637,main_trials,3
11757,,31163,55,all|most|some|none,all|most|some|none,right|wrong,5,,high,placeholder,,1580417205806,placeholder,83,female,English,Describe these results of <strong>Green Valley</strong> so as to make it appear as if there is a <strong>high</strong> success rate without lying.,most|some|right,9|9|9|3|3,In this exam,of the students got,of the questions,.,14,"%{""instances"" => [%{""n_col"" => 12, ""rows"" => [9, 9, 9, 3, 3]}], ""number"" => 14, ""sequence"" => [""BBBCC"", ""BBBBC""], ""truth_table"" => []}",Thu Jan 30 2020 20:30:47 GMT+0000 (Greenwich Mean Time),1580416247984,1|1|1|1|1|1|1|1|1|0|0|0|1|1|1|1|1|1|1|1|1|0|0|0|1|1|1|1|1|1|1|1|1|0|0|0|1|1|1|0|0|0|0|0|0|0|0|0|1|1|1|0|0|0|0|0|0|0|0|0,15.9637,main_trials,4
11757,,23085,55,all|most|some|none,all|most|some|none,right|wrong,5,,low,placeholder,,1580417205806,placeholder,83,female,English,Describe these results of <strong>Riverside</strong> so as to make it appear as if there is a <strong>low</strong> success rate without lying.,all|all|wrong,0|0|0|0|0,In this exam,of the students got,of the questions,.,10,"%{""instances"" => [%{""n_col"" => 12, ""rows"" => [0, 0, 0, 0, 0]}], ""number"" => 10, ""sequence"" => [""DDDDD""], ""truth_table"" => []}",Thu Jan 30 2020 20:30:47 GMT+0000 (Greenwich Mean Time),1580416247984,0|0|0|0|0|0|0|0|0|0|0|0|0|0|0|0|0|0|0|0|0|0|0|0|0|0|0|0|0|0|0|0|0|0|0|0|0|0|0|0|0|0|0|0|0|0|0|0|0|0|0|0|0|0|0|0|0|0|0|0,15.9637,main_trials,5
11757,,49402,55,all|most|some|none,all|most|some|none,right|wrong,5,,low,placeholder,,1580417205806,placeholder,83,female,English,Describe these results of <strong>Riverside</strong> so as to make it appear as if there is a <strong>low</strong> success rate without lying.,most|some|wrong,12|12|9|3|3,In this exam,of the students got,of the questions,.,15,"%{""instances"" => [%{""n_col"" => 12, ""rows"" => [12, 12, 9, 3, 3]}], ""number"" => 15, ""sequence"" => [""ABBBC"", ""ABBCC"", ""AABCC"", ""AABBC""], ""truth_table"" => []}",Thu Jan 30 2020 20:30:47 GMT+0000 (Greenwich Mean Time),1580416247984,1|1|1|1|1|1|1|1|1|1|1|1|1|1|1|1|1|1|1|1|1|1|1|1|1|1|1|1|1|1|1|1|1|0|0|0|1|1|1|0|0|0|0|0|0|0|0|0|1|1|1|0|0|0|0|0|0|0|0|0,15.9637,main_trials,6
11757,,15949,55,all|most|some|none,all|most|some|none,right|wrong,5,,high,placeholder,,1580417205806,placeholder,83,female,English,Describe these results of <strong>Green Valley</strong> so as to make it appear as if there is a <strong>high</strong> success rate without lying.,some|some|right,3|3|3|0|0,In this exam,of the students got,of the questions,.,5,"%{""instances"" => [%{""n_col"" => 12, ""rows"" => [3, 3, 3, 0, 0]}], ""number"" => 5, ""sequence"" => [""CCCDD"", ""CCCCD""], ""truth_table"" => []}",Thu Jan 30 2020 20:30:47 GMT+0000 (Greenwich Mean Time),1580416247984,1|1|1|0|0|0|0|0|0|0|0|0|1|1|1|0|0|0|0|0|0|0|0|0|1|1|1|0|0|0|0|0|0|0|0|0|0|0|0|0|0|0|0|0|0|0|0|0|0|0|0|0|0|0|0|0|0|0|0|0,15.9637,main_trials,7
